Clock:Tick#,Clock:offsetTime,IMU_ATTI(0):Longitude,IMU_ATTI(0):Latitude,IMU_ATTI(0):press:D,IMU_ATTI(0):alti:D,IMU_ATTI(0):relativeHeight:C,IMU_ATTI(0):absoluteHeight:C,IMU_ATTI(0):numSats,IMU_ATTI(0):roll:C,IMU_ATTI(0):pitch:C,IMU_ATTI(0):yaw:C,IMU_ATTI(0):accelX,IMU_ATTI(0):accelY,IMU_ATTI(0):accelZ,IMU_ATTI(0):accelComposite:C,IMU_ATTI(0):gyroX,IMU_ATTI(0):gyroY,IMU_ATTI(0):gyroZ,IMU_ATTI(0):gyroComposite:C,IMU_ATTI(0):velN,IMU_ATTI(0):velE,IMU_ATTI(0):velD,IMU_ATTI(0):velComposite:C,IMU_ATTI(0):velH:C,IMU_ATTI(0):magX,IMU_ATTI(0):magY,IMU_ATTI(0):magZ,IMU_ATTI(0):magMod:C,IMU_ATTI(0):temperature,IMU_ATTI(0):yawUnWrapped:C,IMU_ATTI(0):tiltInclination:C,IMU_ATTI(0):tiltDirectionEarthFrame:C,IMU_ATTI(0):tiltDirectionBodyFrame:C,IMU_ATTI(0):yaw360:C,IMU_ATTI(0):magYaw:C,IMU_ATTI(0):Yaw-magYaw:C,IMUCalcs(0):PosN:C,IMUCalcs(0):PosE:C,IMUCalcs(0):PosD:C,IMUCalcs(0):height:C,IMUCalcs(0):velN:C,IMUCalcs(0):velE:C,IMUCalcs(0):velD:C,IMUCalcs(0):diffVelN:C,IMUCalcs(0):diffVelE:C,IMUCalcs(0):diffVelD:C,IMUCalcs(0):Lat:C,IMUCalcs(0):Long:C,IMUCalcs(0):VelocityError:C,IMUCalcs(0):PositionError:C,IMUCalcs(0):totalGyroZ:C,IMUCalcs(0):totalGyroX:C,IMUCalcs(0):totalGyroY:C,IMU_ATTI(0):distanceHP:C,IMU_ATTI(0):distanceTravelled:C,IMU_ATTI(0):directionOfTravel[mag]:C,IMU_ATTI(0):directionOfTravel[true]:C,IMU_ATTI(0):quatW:D,IMU_ATTI(0):quatX:D,IMU_ATTI(0):quatY:D,IMU_ATTI(0):quatZ:D,IMU_ATTI(0):agX:D,IMU_ATTI(0):agY:D,IMU_ATTI(0):agZ:D,IMU_ATTI(0):gbX:D,IMU_ATTI(0):gbY:D,IMU_ATTI(0):gbZ:D,IMU_ATTI(0):ty:D,IMU_ATTI(0):tz:D,IMU_ATTI(0):sensor_stat:D,IMU_ATTI(0):filter_stat:D,IMU_ATTI(0):atti_cnt:D,GPS:Long,GPS:Lat,GPS:Date,GPS:Time,GPS:dateTimeStamp,GPS:heightMSL,GPS:hDOP,GPS:pDOP,GPS:sAcc,GPS:numGPS,GPS:numGLNAS,GPS:numSV,GPS:velN,GPS:velE,GPS:velD,GPS:rawDate,GPS:rawTime,Controller:ctrl_tick:D,Controller:ctrl_pitch:D,Controller:ctrl_roll:D,Controller:ctrl_yaw:D,Controller:ctrl_thr:D,Controller:ctrl_mode,Controller:mode_switch:D,Controller:motor_state:D,Controller:sig_level:D,Controller:ctrl_level:D,Controller:sim_model:D,Controller:max_height:D,Controller:max_radius:D,Controller:D2H_x:D,Controller:D2H_y:D,Controller:D2H_ready_type:D,Controller:act_req_id:D,Controller:act_act_id:D,Controller:cmd_mod:D,Controller:mod_req_id:D,Controller:is_soaring_up:D,Controller:eagle_temp_level:D,BatteryStatus:not_ready,BatteryStatus:comm_err,BatteryStatus:first_auth,BatteryStatus:auth_fail,BatteryStatus:need_re,BatteryStatus:volVerylow,BatteryStatus:volNotsafe,BatteryStatus:volLevel1:D,BatteryStatus:vollevel2:D,BatteryStatus:capLevel1:D,BatteryStatus:capLevel2:D,BatteryStatus:smartCap1:D,BatteryStatus:smartCap2:D,BatteryStatus:d_flg:D,BatteryStatus:ccsc:D,BatteryStatus:present:D,BatteryStatus:all:D,SMART_BATT:goHome%,SMART_BATT:land%,SMART_BATT:goHomeTime,SMART_BATT:landTime,OA:avoidObst,OA:emergBrake,OA:radiusLimit,OA:airportLimit,OA:groundForceLanding,OA:horizNearBoundary,OA:vertLowLimit,OA:vertAirportLimit,OA:roofLimit,OA:hitGroundLimit,MVO:velX,MVO:velY,MVO:velZ,MVO:posX,MVO:posY,MVO:posZ,MVO:hoverPointUncertainty1,MVO:hoverPointUncertainty2,MVO:hoverPointUncertainty3,MVO:hoverPointUncertainty4,MVO:hoverPointUncertainty5,MVO:hoverPointUncertainty6,MVO:velocityUncertainty1,MVO:velocityUncertainty2,MVO:velocityUncertainty3,MVO:velocityUncertainty4,MVO:velocityUncertainty5,MVO:velocityUncertainty6,MVO:height,MVO:heightUncertainty,Motor:Speed:RFront,Motor:Speed:LFront,Motor:Speed:LBack,Motor:Speed:RBack,Motor:EscTemp:RFront,Motor:EscTemp:LFront,Motor:EscTemp:LBack,Motor:EscTemp:RBack,Motor:PPMrecv:RFront,Motor:PPMrecv:LFront,Motor:PPMrecv:LBack,Motor:PPMrecv:RBack,Motor:PPMsend:RFront,Motor:PPMsend:LFront,Motor:PPMsend:LBack,Motor:PPMsend:RBack,Motor:V_out:RFront,Motor:V_out:LFront,Motor:V_out:LBack,Motor:V_out:RBack,Motor:Volts:RFront,Motor:Volts:LFront,Motor:Volts:LBack,Motor:Volts:RBack,Motor:Current:RFront,Motor:Current:LFront,Motor:Current:LBack,Motor:Current:RBack,Motor:Status:RFront,Motor:Status:LFront,Motor:Status:LBack,Motor:Status:RBack,usonic:usonic_h,MotorCtrl:PWM:RFront,MotorCtrl:PWM:LFront,MotorCtrl:PWM:LBack,MotorCtrl:PWM:RBack,ATTI_MINI0:s_qw0,ATTI_MINI0:s_qx0,ATTI_MINI0:s_qy0,ATTI_MINI0:s_qz0,ATTI_MINI0:roll:C,ATTI_MINI0:pitch:C,ATTI_MINI0:yaw:C,ATTI_MINI0:s_pgz0,ATTI_MINI0:s_vgz0,ATTI_MINI0:s_agz0,ATTI_MINI0:s_rsv00,ATTI_MINI0:s_rsv10,ATTI_MINI0:s_cnt0,BatteryInfo:Vol:D,BatteryInfo:Current:D,BatteryInfo:R_time,BatteryInfo:CellVol:D,BatteryInfo:LowVolThreshold:D,BatteryInfo:AdVol:D,BatteryInfo:BatVol:D,BatteryInfo:BatCurrent:D,BatteryInfo:BatCap:D,BatteryInfo:CapPercnt:D,BatteryInfo:BatTemp:D,BatteryInfo:BatAuth:D,BatteryInfo:BatDataCnt:D,BatteryInfo:FullCap:D,Attribute|Value,ConvertDatV3,4.3.0
0,-344.350,,,,,,,,,,,,,,,,,,,,,,,,,,,,,,,,,,,,,,,,,,,,,,,,,,,,,,,,,,,,,,,,,,,,,,,,,,,,,,,,,,,,,,,,,,,,,,,,,,,,,,,,,,,,,,,,,,,,,,,,,,,,,,,,,,,,,,,,,,,,,,,,,,,,,,,,,,,,,,,,,,,,,,,,,,,,,,,,,,,,,,,,,,,,,,,,,,,,,,,,,,,,,,,,,,,,,,,,,,,,,,,,,
1549573000,.000,-106.21645369611862,39.961194018533035,2396.9487,2398.0613,-2.224853531250119,,14,1.0977243478920828,-2.1533991327650197,-117.84733748723859,-0.037370984,-0.019998778,-1.0081841,1.0090747,0.4099332,1.5282548E-4,0.1757251,0.4460096,0.0015750516,0.003628103,0.04846735,0.048628468,0.003955239569347723,-380,612,1347,1527.0,64.98,-117.84733748723859,2.416580026633402,-90.84459063554787,27.002746851690716,242.15266251276142,-126.31627239913055,-8.468934911891964,0.0,0.0,0.0,-0.0,NaN,NaN,NaN,NaN,NaN,NaN,NaN,NaN,false,false,-574.0871391824719,-562.3419943011494,-67.73353168610183,,227.31947645500878,,,0.51591057,-0.011149485,-0.017902045,-0.8563828,7.223985E-4,-0.007965883,0.019820213,0.0053455695,-0.008599803,0.0017706691,100,4688,0,0,64475,-106.2164536,39.961194,20180619,200827,2018-06-19T20:08:27Z,2485.657,0.75,1.27,7.3,8,6,14,0.0,0.0,0.02,20180619,200827,16250,0.0,0.0,0.0,0.0,GPS_Atti,2,0,5,5,0,400,805,-3.3733857,-16.425047,1.0,16,5,3,2,0,0,0,0,0,0,0,0,0,0,0,0,0,0,0,0,0,0,65536,15,10,0,0,,,,,,,,,,,0.05,-0.04,-0.07,0.022699332,-0.082349755,0.003119915,0.0016894911,0.0,0.0,0.0016895046,0.0,0.0016895453,1.0559319E-4,0.0,0.340574,1.0559404E-4,0.0,1.05596584E-4,,1000000.0,0,0,0,0,77,57,56,78,49.270832,49.427082,49.427082,49.270832,48.958332,48.958332,48.958332,48.958332,0.0,0.0,0.0,0.0,1661.9,1666.2,1666.2,1662.5,2.15,3.0,1.04,2.02,0,0,0,0,0.099,,,,,0.32699266,-0.014507138,-0.015176914,-0.9447936,2.1872567399739076,-1.0027145081295743,141.83771456013932,2397.211,0.036579706,0.010559671,0,0,65009,16773.0,1569.5533,0,4190,12000.0,16888,16773,-1574,5480,91,30,1,317,6022,Firmware Date| Apr 29 2018
1549749105,.039,-106.21645369245395,39.96119402595874,2397.5115,2398.0562,-0.5461423906249365,,14,1.1192893077642834,-2.15538419266072,-117.84631036744832,-0.036579482,-0.020031143,-1.0084119,1.0092739,0.3801109,0.022177145,0.061249014,0.38565212,0.0038667524,0.0017415346,0.043273862,0.043481167,0.0042408390288617885,-380,615,1353,1534.0,64.97,-117.84631036744832,2.428194335748772,-90.41156972190095,27.43474064554738,242.15368963255168,-126.22387052658279,-8.377560159134461,0.0,0.0,0.0,-0.0,NaN,NaN,NaN,NaN,NaN,NaN,39.96119402595874,-106.21645369245395,false,false,-574.0747943699499,-562.3008381342441,-67.7323684396598,,227.32035925406652,,,0.515914,-0.011067009,-0.018072208,-0.85637826,-0.020059898,-0.017737716,0.016202927,0.0053339796,-0.008590275,0.0017710194,100,4689,0,0,64515,-106.2164536,39.961194,20180619,200827,2018-06-19T20:08:27Z,2485.657,0.75,1.27,7.3,8,6,14,0.0,0.0,0.02,20180619,200827,16250,0.0,0.0,0.0,0.0,GPS_Atti,2,0,5,5,0,400,805,-3.3733857,-16.425047,1.0,16,5,3,2,0,0,0,0,0,0,0,0,0,0,0,0,0,0,0,0,0,0,65536,15,10,0,0,,,,,,,,,,,0.05,-0.04,-0.07,0.022699332,-0.082349755,0.003119915,0.0016894911,0.0,0.0,0.0016895046,0.0,0.0016895453,1.0559319E-4,0.0,0.340574,1.0559404E-4,0.0,1.05596584E-4,,1000000.0,1800,26491,6676,0,77,52,56,77,58.802082,59.0625,59.010418,58.854168,58.4375,58.4375,58.4375,58.4375,0.1,0.4,0.4,0.0,1653.9,1650.2,1660.7,1653.9,7.18,4.58,1.78,2.02,0,0,0,0,0.099,,,,,0.32699266,-0.014507138,-0.015176914,-0.9447936,2.1872567399739076,-1.0027145081295743,141.83771456013932,2397.211,0.036579706,0.010559671,0,0,65009,16773.0,1569.5533,0,4190,12000.0,16888,16773,-1574,5480,91,30,1,317,6022,ACType|P4PV2
1550027384,.101,-106.21645369245395,39.96119402595874,2397.5115,2398.0562,-0.5461423906249365,,14,1.1192893077642834,-2.15538419266072,-117.84631036744832,-0.036579482,-0.020031143,-1.0084119,1.0092739,0.3801109,0.022177145,0.061249014,0.38565212,0.0038667524,0.0017415346,0.043273862,0.043481167,0.0042408390288617885,-380,615,1353,1534.0,64.97,-117.84631036744832,2.428194335748772,-90.41156972190095,27.43474064554738,242.15368963255168,-126.22387052658279,-8.377560159134461,0.0,0.0,0.0,-0.0,NaN,NaN,NaN,NaN,NaN,NaN,39.96119402595874,-106.21645369245395,false,false,-574.0747943699499,-562.3008381342441,-67.7323684396598,,227.32035925406652,,,0.515914,-0.011067009,-0.018072208,-0.85637826,-0.020059898,-0.017737716,0.016202927,0.0053339796,-0.008590275,0.0017710194,100,4689,0,0,64515,-106.2164536,39.961194,20180619,200827,2018-06-19T20:08:27Z,2485.657,0.75,1.27,7.3,8,6,14,0.0,0.0,0.02,20180619,200827,16250,0.0,0.0,0.0,0.0,GPS_Atti,2,0,5,5,0,400,805,-3.3733857,-16.425047,1.0,16,5,3,2,0,0,0,0,0,0,0,0,0,0,0,0,0,0,0,0,0,0,65536,15,10,0,0,,,,,,,,,,,0.05,-0.04,-0.07,0.022699332,-0.082349755,0.003119915,0.0016894911,0.0,0.0,0.0016895046,0.0,0.0016895453,1.0559319E-4,0.0,0.340574,1.0559404E-4,0.0,1.05596584E-4,,1000000.0,1800,26491,6676,0,77,52,56,77,58.802082,59.0625,59.010418,58.854168,58.4375,58.4375,58.4375,58.4375,0.1,0.4,0.4,0.0,1653.9,1650.2,1660.7,1653.9,7.18,4.58,1.78,2.02,0,0,0,0,0.099,,,,,0.32699266,-0.014507138,-0.015176914,-0.9447936,2.1872567399739076,-1.0027145081295743,141.83771456013932,2397.211,0.036579706,0.010559671,0,0,65009,16773.0,1569.5533,0,4190,12000.0,16888,16773,-1574,5480,91,30,1,317,6022,dateTime|2018-6-19 20:5:25 GMT
1550218044,.143,-106.21645362700413,39.96119402725498,2397.098,2398.0222,-0.9597166093749365,,14,1.1199765118286515,-2.1770453240893075,-118.033396219192,-0.030232202,-0.039987817,-1.0113595,1.012601,-1.2970202,-1.154299,-16.225428,16.318064,0.0048563336,-0.002386897,0.060550015,0.06079133,0.0054112156382051125,-380,606,1347,1525.0,65.0,-118.033396219192,2.447746157922368,-90.81818455189106,27.215211667300938,241.966603780808,-126.65850955194001,-8.625113332748015,2.529834429623179E-4,-1.2434183826570688E-4,0.003154262583052514,-0.003154262583052514,NaN,NaN,NaN,NaN,NaN,NaN,39.961194028233884,-106.21645369391288,false,false,-574.9168431032681,-562.3486031546134,-67.79134463723459,,227.32593931568837,88.51986357481952,88.51986357481952,0.51451164,-0.011255451,-0.018156514,-0.8572173,0.81430376,-0.002843231,-0.03459549,0.0053354944,-0.008591425,0.0017715328,100,4689,0,0,64555,-106.2164536,39.961194,20180619,200827,2018-06-19T20:08:27Z,2485.657,0.75,1.27,7.3,8,6,14,0.0,0.0,0.02,20180619,200827,16260,0.0,0.0,0.0,0.0,ASST_TAKEOFF,2,1,5,5,0,400,805,-3.3724148,-16.41915,1.0,6,1,4,6,0,0,0,0,0,0,0,0,0,0,0,0,0,0,0,0,0,0,65536,15,10,0,0,false,false,false,false,false,false,false,false,false,false,0.05,-0.04,-0.07,0.022699332,-0.082349755,0.003119915,0.0016894911,0.0,0.0,0.0016895046,0.0,0.0016895453,1.0559319E-4,0.0,0.340574,1.0559404E-4,0.0,1.05596584E-4,,1000000.0,167,147,166,209,71,52,48,71,59.0625,59.322918,59.322918,59.114582,58.75,58.75,58.75,58.75,0.1,0.1,0.1,0.1,1642.9,1647.2,1649.6,1644.7,11.18,10.1,10.68,11.27,0,0,0,0,0.099,0.8,0.8,0.8,0.8,0.32699266,-0.014507138,-0.015176914,-0.9447936,2.1872567399739076,-1.0027145081295743,141.83771456013932,2397.211,0.036579706,0.010559671,0,0,65009,16773.0,1569.5533,0,4190,12000.0,16888,16773,-1574,5480,91,30,1,317,6022,
1550408360,.186,-106.21645362700413,39.96119402725498,2397.098,2398.0222,-0.9597166093749365,,14,1.1199765118286515,-2.1770453240893075,-118.033396219192,-0.030232202,-0.039987817,-1.0113595,1.012601,-1.2970202,-1.154299,-16.225428,16.318064,0.0048563336,-0.002386897,0.060550015,0.06079133,0.0054112156382051125,-380,606,1347,1525.0,65.0,-118.033396219192,2.447746157922368,-90.81818455189106,27.215211667300938,241.966603780808,-126.65850955194001,-8.625113332748015,2.529834429623179E-4,-1.2434183826570688E-4,0.003154262583052514,-0.003154262583052514,NaN,NaN,NaN,NaN,NaN,NaN,39.961194028233884,-106.21645369391288,false,false,-574.9168431032681,-562.3486031546134,-67.79134463723459,,227.32593931568837,88.51986357481952,88.51986357481952,0.51451164,-0.011255451,-0.018156514,-0.8572173,0.81430376,-0.002843231,-0.03459549,0.0053354944,-0.008591425,0.0017715328,100,4689,0,0,64555,-106.2164536,39.961194,20180619,200827,2018-06-19T20:08:27Z,2485.664,0.75,1.27,7.3,8,6,14,0.01,0.0,0.01,20180619,200827,16260,0.0,0.0,0.0,0.0,ASST_TAKEOFF,2,1,5,5,0,400,805,-3.3724148,-16.41915,1.0,6,1,4,6,0,0,0,0,0,0,0,0,0,0,0,0,0,0,0,0,0,0,65536,15,10,0,0,false,false,false,false,false,false,false,false,false,false,0.04,-0.04,-0.05,0.022697825,-0.0823496,0.0031210138,0.001689161,0.0,0.0,0.0016891538,0.0,0.0016891042,1.05572566E-4,0.0,0.34189504,1.05572115E-4,0.0,1.05569015E-4,,1000000.0,167,147,166,209,71,52,48,71,59.0625,59.322918,59.322918,59.114582,58.75,58.75,58.75,58.75,0.1,0.1,0.1,0.1,1642.9,1647.2,1649.6,1644.7,11.18,10.1,10.68,11.27,0,0,0,0,0.099,0.8,0.8,0.8,0.8,0.32699266,-0.014507138,-0.015176914,-0.9447936,2.1872567399739076,-1.0027145081295743,141.83771456013932,2397.211,0.036579706,0.010559671,0,0,65009,16773.0,1569.5533,0,4190,12000.0,16888,16773,-1574,5480,91,30,1,317,6022,
1550566714,.221,-106.21645362383107,39.961194033075046,2397.3489,2398.0107,-0.7087400468749365,,14,1.1243535672124638,-2.158394032530052,-117.57170905993165,-0.08764821,0.0973224,-1.012911,1.0213435,1.2160132,0.40968463,9.2186,9.307477,-0.0038298126,-0.00113953,0.05942085,0.059555043,0.003995746983068947,-366,621,1370,1548.0,64.95,-117.57170905993165,2.4331966279964825,-90.06383319620217,27.507875863729478,242.42829094006834,-125.12052120038217,-7.548812140450522,3.064741826577233E-4,-3.0809959726596503E-4,0.009405796180544712,-0.009405796180544712,NaN,NaN,NaN,NaN,NaN,NaN,39.961194028714935,-106.21645369606894,false,false,-575.2819602208124,-562.3528243295085,-67.8301455733682,,227.3266407091995,,,0.5179633,-0.011023226,-0.018150065,-0.85513926,0.4980462,-0.1412156,-0.039732933,0.005330877,-0.008594793,0.0017724475,100,4689,0,0,64595,-106.2164536,39.961194,20180619,200827,2018-06-19T20:08:27Z,2485.664,0.75,1.27,7.3,8,6,14,0.01,0.0,0.01,20180619,200827,16260,0.0,0.0,0.0,0.0,ASST_TAKEOFF,2,1,5,5,0,400,805,-3.3724148,-16.41915,1.0,6,1,4,6,0,0,0,0,0,0,0,0,0,0,0,0,0,0,0,0,0,0,65536,16,10,35,0,false,false,false,false,false,false,false,false,false,false,0.04,-0.04,-0.05,0.022697825,-0.0823496,0.0031210138,0.001689161,0.0,0.0,0.0016891538,0.0,0.0016891042,1.05572566E-4,0.0,0.34189504,1.05572115E-4,0.0,1.05569015E-4,,1000000.0,167,147,166,209,71,52,48,71,59.0625,59.322918,59.322918,59.114582,58.75,58.75,58.75,58.75,0.1,0.1,0.1,0.1,1642.9,1647.2,1649.6,1644.7,11.18,10.1,10.68,11.27,0,0,0,0,0.099,1.46,1.46,1.46,1.46,0.32699266,-0.014507138,-0.015176914,-0.9447936,2.1872567399739076,-1.0027145081295743,141.83771456013932,2397.211,0.036579706,0.010559671,0,0,65009,16741.0,1570.2631,0,4190,12000.0,16797,16741,-1574,5480,91,30,1,318,6022,
1550973678,.311,-106.21645362383107,39.961194033075046,2397.3489,2398.0107,-0.7087400468749365,,14,1.1243535672124638,-2.158394032530052,-117.57170905993165,-0.08764821,0.0973224,-1.012911,1.0213435,1.2160132,0.40968463,9.2186,9.307477,-0.0038298126,-0.00113953,0.05942085,0.059555043,0.003995746983068947,-366,621,1370,1548.0,64.95,-117.57170905993165,2.4331966279964825,-90.06383319620217,27.507875863729478,242.42829094006834,-125.12052120038217,-7.548812140450522,3.064741826577233E-4,-3.0809959726596503E-4,0.009405796180544712,-0.009405796180544712,NaN,NaN,NaN,NaN,NaN,NaN,39.961194028714935,-106.21645369606894,false,false,-575.2819602208124,-562.3528243295085,-67.8301455733682,,227.3266407091995,,,0.5179633,-0.011023226,-0.018150065,-0.85513926,0.4980462,-0.1412156,-0.039732933,0.005330877,-0.008594793,0.0017724475,100,4689,0,0,64595,-106.2164536,39.961194,20180619,200827,2018-06-19T20:08:27Z,2485.664,0.75,1.27,7.3,8,6,14,0.01,0.0,0.01,20180619,200827,16260,0.0,0.0,0.0,0.0,ASST_TAKEOFF,2,1,5,5,0,400,805,-3.3724148,-16.41915,1.0,6,1,4,6,0,0,0,0,0,0,0,0,0,0,0,0,0,0,0,0,0,0,65536,16,10,35,0,false,false,false,false,false,false,false,false,false,false,0.04,-0.04,-0.05,0.022697825,-0.0823496,0.0031210138,0.001689161,0.0,0.0,0.0016891538,0.0,0.0016891042,1.05572566E-4,0.0,0.34189504,1.05572115E-4,0.0,1.05569015E-4,,1000000.0,183,265,182,171,75,50,52,73,59.375,59.635418,59.583332,59.375,59.010418,59.010418,59.010418,59.010418,0.1,0.1,0.1,0.1,1644.1,1647.8,1648.4,1645.3,11.03,9.72,10.86,11.03,0,0,0,0,0.099,1.46,1.46,1.46,1.46,0.32699266,-0.014507138,-0.015176914,-0.9447936,2.1872567399739076,-1.0027145081295743,141.83771456013932,2397.211,0.036579706,0.010559671,0,0,65009,16741.0,1570.2631,0,4190,12000.0,16797,16741,-1574,5480,91,30,1,318,6022,
1551155574,.352,-106.21645362204343,39.961194037396936,2396.9023,2398.0217,-1.1552732499999365,,14,1.1272392590249392,-2.1635152429893445,-117.95014416369837,-0.015505745,-0.0664569,-1.0039469,1.0062635,-1.0291716,-0.7710391,-17.750393,17.796913,0.015321984,-0.0023712534,0.035928946,0.03913151,0.01550438782074879,-386,618,1344,1528.0,64.97,-117.95014416369837,2.4390680503867395,-90.43776686089748,27.51237730280088,242.04985583630162,-126.4542301789006,-8.504086015202233,9.053170335207028E-4,-4.91042184567192E-4,0.014374356265648203,-0.014374356265648203,NaN,NaN,NaN,NaN,NaN,NaN,39.96119403410045,-106.21645369821543,false,false,-575.7265413955552,-562.3430882441779,-67.84897530996624,,227.32714485465996,,,0.515135,-0.011108421,-0.018158156,-0.85684466,0.15932225,0.029139433,0.07194996,0.0053318157,-0.008595866,0.0017717519,100,4689,0,0,64635,-106.2164536,39.961194,20180619,200827,2018-06-19T20:08:27Z,2485.664,0.75,1.27,7.3,8,6,14,0.01,0.0,0.01,20180619,200827,16270,0.0,0.0,0.0,0.0,ASST_TAKEOFF,2,1,5,5,0,400,805,-3.371286,-16.418726,1.0,6,1,4,6,0,0,0,0,0,0,0,0,0,0,0,0,0,0,0,0,0,0,65536,16,10,35,0,false,false,false,false,false,false,false,false,false,false,0.04,-0.04,-0.05,0.022697825,-0.0823496,0.0031210138,0.001689161,0.0,0.0,0.0016891538,0.0,0.0016891042,1.05572566E-4,0.0,0.34189504,1.05572115E-4,0.0,1.05569015E-4,,1000000.0,267,279,226,227,74,56,50,73,59.635418,59.947918,59.791668,59.635418,59.270832,59.270832,59.270832,59.270832,0.1,0.1,0.1,0.1,1644.1,1647.8,1647.8,1644.7,10.84,9.98,10.7,11.15,0,0,0,0,0.099,2.13,2.13,2.13,2.13,0.32699266,-0.014507138,-0.015176914,-0.9447936,2.1872567399739076,-1.0027145081295743,141.83771456013932,2397.211,0.036579706,0.010559671,0,0,65009,16741.0,1570.2631,0,4190,12000.0,16797,16741,-1574,5480,91,30,1,318,6022,
1551321638,.389,-106.21645362204343,39.961194037396936,2396.9023,2398.0217,-1.1552732499999365,,14,1.1272392590249392,-2.1635152429893445,-117.95014416369837,-0.015505745,-0.0664569,-1.0039469,1.0062635,-1.0291716,-0.7710391,-17.750393,17.796913,0.015321984,-0.0023712534,0.035928946,0.03913151,0.01550438782074879,-386,618,1344,1528.0,64.97,-117.95014416369837,2.4390680503867395,-90.43776686089748,27.51237730280088,242.04985583630162,-126.4542301789006,-8.504086015202233,9.053170335207028E-4,-4.91042184567192E-4,0.014374356265648203,-0.014374356265648203,NaN,NaN,NaN,NaN,NaN,NaN,39.96119403410045,-106.21645369821543,false,false,-575.7265413955552,-562.3430882441779,-67.84897530996624,,227.32714485465996,,,0.515135,-0.011108421,-0.018158156,-0.85684466,0.15932225,0.029139433,0.07194996,0.0053318157,-0.008595866,0.0017717519,100,4689,0,0,64635,-106.2164536,39.961194,20180619,200827,2018-06-19T20:08:27Z,2485.659,0.75,1.27,7.3,8,6,14,-0.01,0.0,0.03,20180619,200827,16270,0.0,0.0,0.0,0.0,ASST_TAKEOFF,2,1,5,5,0,400,805,-3.371286,-16.418726,1.0,6,1,4,6,0,0,0,0,0,0,0,0,0,0,0,0,0,0,0,0,0,0,65536,16,10,35,0,false,false,false,false,false,false,false,false,false,false,0.03,-0.02,-0.06,0.02269857,-0.082348175,0.0031211772,0.0016886429,0.0,0.0,0.0016885486,0.0,0.0016885856,1.0554018E-4,0.0,0.34150717,1.0553429E-4,0.0,1.055366E-4,,1000000.0,267,279,226,227,74,56,50,73,59.635418,59.947918,59.791668,59.635418,59.270832,59.270832,59.270832,59.270832,0.1,0.1,0.1,0.1,1644.1,1647.8,1647.8,1644.7,10.84,9.98,10.7,11.15,0,0,0,0,0.099,2.13,2.13,2.13,2.13,0.32699266,-0.014507138,-0.015176914,-0.9447936,2.1872567399739076,-1.0027145081295743,141.83771456013932,2397.211,0.036579706,0.010559671,0,0,65009,16741.0,1570.2631,0,4190,12000.0,16797,16741,-1574,5480,91,30,1,318,6022,
1551503920,.429,-106.21645362128369,39.96119404194355,2396.44,2398.009,-1.6176755937499365,,14,1.1064775535953233,-2.1916771496534464,-117.8026675382875,-0.06378325,0.024505196,-1.0134343,1.0157351,0.3906642,-0.26099777,5.234946,5.2559867,0.008703623,-0.0032450943,0.04109267,0.042129457,0.009288901420384521,-375,609,1367,1542.0,64.97,-117.8026675382875,2.4546598311763232,-91.02392554788472,26.77874199040278,242.1973324617125,-126.27204825127177,-8.469380712984275,0.0021550621201882336,-7.831889367615474E-4,0.018380806062111787,-0.018380806062111787,0.0052270509061758405,0.0015602985555475603,0.04219162027541752,-0.0034765720608289355,0.0048053928809409984,0.001098948821464732,39.96119404533968,-106.21645370164323,false,false,-576.3775600616223,-562.3763016187035,-67.90265899212373,,227.32765454509942,,,0.5162368,-0.011389043,-0.01814422,-0.856178,0.18538961,0.0051956214,-0.03485775,0.005347187,-0.008587371,0.0017702592,100,4690,0,0,64675,-106.2164536,39.961194,20180619,200827,2018-06-19T20:08:27Z,2485.659,0.75,1.27,7.3,8,6,14,-0.01,0.0,0.03,20180619,200827,16270,0.0,0.0,0.0,0.0,ASST_TAKEOFF,2,1,5,5,0,400,805,-3.371286,-16.418726,1.0,6,1,4,6,0,0,0,0,0,0,0,0,0,0,0,0,0,0,0,0,0,0,65536,16,10,35,0,false,false,false,false,false,false,false,false,false,false,0.03,-0.02,-0.06,0.02269857,-0.082348175,0.0031211772,0.0016886429,0.0,0.0,0.0016885486,0.0,0.0016885856,1.0554018E-4,0.0,0.34150717,1.0553429E-4,0.0,1.055366E-4,,1000000.0,267,279,226,227,74,56,50,73,59.635418,59.947918,59.791668,59.635418,59.270832,59.270832,59.270832,59.270832,0.1,0.1,0.1,0.1,1644.1,1647.8,1647.8,1644.7,10.84,9.98,10.7,11.15,0,0,0,0,0.099,2.79,2.79,2.79,2.79,0.3263983,-0.0146221155,-0.015272489,-0.9449959,2.2012804580843666,-1.0129785653826233,141.90998624249067,2397.129,0.07609261,0.096739314,0,0,65109,16697.0,1570.2631,0,4190,12000.0,16709,16697,-1574,5480,91,30,1,318,6022,
1551902084,.518,-106.21645362128369,39.96119404194355,2396.44,2398.009,-1.6176755937499365,,14,1.1064775535953233,-2.1916771496534464,-117.8026675382875,-0.06378325,0.024505196,-1.0134343,1.0157351,0.3906642,-0.26099777,5.234946,5.2559867,0.008703623,-0.0032450943,0.04109267,0.042129457,0.009288901420384521,-375,609,1367,1542.0,64.97,-117.8026675382875,2.4546598311763232,-91.02392554788472,26.77874199040278,242.1973324617125,-126.27204825127177,-8.469380712984275,0.0021550621201882336,-7.831889367615474E-4,0.018380806062111787,-0.018380806062111787,0.0052270509061758405,0.0015602985555475603,0.04219162027541752,-0.0034765720608289355,0.0048053928809409984,0.001098948821464732,39.96119404533968,-106.21645370164323,false,false,-576.3775600616223,-562.3763016187035,-67.90265899212373,,227.32765454509942,,,0.5162368,-0.011389043,-0.01814422,-0.856178,0.18538961,0.0051956214,-0.03485775,0.005347187,-0.008587371,0.0017702592,100,4690,0,0,64675,-106.2164536,39.961194,20180619,200827,2018-06-19T20:08:27Z,2485.659,0.75,1.27,7.3,8,6,14,-0.01,0.0,0.03,20180619,200827,16270,0.0,0.0,0.0,0.0,ASST_TAKEOFF,2,1,5,5,0,400,805,-3.371286,-16.418726,1.0,6,1,4,6,0,0,0,0,0,0,0,0,0,0,0,0,0,0,0,0,0,0,65536,16,10,35,0,false,false,false,false,false,false,false,false,false,false,0.03,-0.02,-0.06,0.02269857,-0.082348175,0.0031211772,0.0016886429,0.0,0.0,0.0016885486,0.0,0.0016885856,1.0554018E-4,0.0,0.34150717,1.0553429E-4,0.0,1.055366E-4,,1000000.0,287,258,262,267,73,48,52,74,59.895832,60.15625,60.104168,59.947918,59.583332,59.583332,59.583332,59.583332,0.1,0.1,0.1,0.1,1644.7,1647.8,1647.8,1643.5,10.73,10.15,10.62,11.42,0,0,0,0,0.099,2.79,2.79,2.79,2.79,0.3263983,-0.0146221155,-0.015272489,-0.9449959,2.2012804580843666,-1.0129785653826233,141.90998624249067,2397.129,0.07609261,0.096739314,0,0,65109,16697.0,1570.2631,0,4190,12000.0,16709,16697,-1574,5480,91,30,1,318,6022,
1552092875,.560,-106.21645361980889,39.9611940442364,2396.7808,2398.016,-1.2768552812499365,,14,1.0920993956949563,-2.1308503481913132,-117.8983748434956,-0.027325,-0.04557693,-1.00454,1.0059446,0.25085306,-0.2979587,-9.995104,10.002689,0.0028996342,-0.0012831413,0.01890599,0.01917005,0.003170856387851484,-361,621,1301,1486.0,64.99,-117.8983748434956,2.3939520991592897,-90.77032150184316,27.128053341652443,242.10162515650438,-124.49173382439227,-6.593358980896667,0.0027593394130320803,-0.001019011511427692,0.021505431168122868,-0.021505431168122868,0.0052270509061758405,0.0015602985555475603,0.04219162027541752,0.0023274167199973947,0.0028434398742562183,0.023285630449691966,39.961194050774075,-106.21645370441017,false,false,-576.6254607492679,-562.342892524768,-67.93176846548168,,227.32793879915374,,,0.5155336,-0.0110142175,-0.017753594,-0.8566146,0.29213303,0.0321638,0.050868988,0.0053473273,-0.008587161,0.0017701347,100,4690,0,0,64715,-106.2164536,39.961194,20180619,200827,2018-06-19T20:08:27Z,2485.659,0.75,1.27,7.3,8,6,14,-0.01,0.0,0.03,20180619,200827,16280,0.0,0.0,0.0,0.0,ASST_TAKEOFF,2,1,5,5,0,400,805,-3.3705244,-16.418535,1.0,6,1,4,6,0,0,0,0,0,0,0,0,0,0,0,0,0,0,0,0,0,0,65536,16,10,35,0,false,false,false,false,false,false,false,false,false,false,0.03,-0.02,-0.06,0.02269857,-0.082348175,0.0031211772,0.0016886429,0.0,0.0,0.0016885486,0.0,0.0016885856,1.0554018E-4,0.0,0.34150717,1.0553429E-4,0.0,1.055366E-4,,1000000.0,316,262,305,259,72,54,50,73,60.15625,60.416668,60.416668,60.208332,59.84375,59.84375,59.84375,59.84375,0.1,0.1,0.1,0.1,1642.9,1647.8,1647.8,1643.5,10.75,10.3,10.61,11.5,0,0,0,0,0.099,3.46,3.46,3.46,3.46,0.3263983,-0.0146221155,-0.015272489,-0.9449959,2.2012804580843666,-1.0129785653826233,141.90998624249067,2397.129,0.07609261,0.096739314,0,0,65109,16697.0,1570.2631,0,4190,12000.0,16709,16697,-1574,5480,91,30,1,318,6022,
1552283136,.602,-106.21645361980889,39.9611940442364,2396.7808,2398.016,-1.2768552812499365,,14,1.0920993956949563,-2.1308503481913132,-117.8983748434956,-0.027325,-0.04557693,-1.00454,1.0059446,0.25085306,-0.2979587,-9.995104,10.002689,0.0028996342,-0.0012831413,0.01890599,0.01917005,0.003170856387851484,-361,621,1301,1486.0,64.99,-117.8983748434956,2.3939520991592897,-90.77032150184316,27.128053341652443,242.10162515650438,-124.49173382439227,-6.593358980896667,0.0027593394130320803,-0.001019011511427692,0.021505431168122868,-0.021505431168122868,0.0052270509061758405,0.0015602985555475603,0.04219162027541752,0.0023274167199973947,0.0028434398742562183,0.023285630449691966,39.961194050774075,-106.21645370441017,false,false,-576.6254607492679,-562.342892524768,-67.93176846548168,,227.32793879915374,,,0.5155336,-0.0110142175,-0.017753594,-0.8566146,0.29213303,0.0321638,0.050868988,0.0053473273,-0.008587161,0.0017701347,100,4690,0,0,64715,-106.2164536,39.961194,20180619,200827,2018-06-19T20:08:27Z,2485.665,0.75,1.27,7.3,8,6,14,-0.01,0.0,0.02,20180619,200827,16280,0.0,0.0,0.0,0.0,ASST_TAKEOFF,2,1,5,5,0,400,805,-3.3705244,-16.418535,1.0,6,1,4,6,0,0,0,0,0,0,0,0,0,0,0,0,0,0,0,0,0,0,65536,16,10,35,0,false,false,false,false,false,false,false,false,false,false,0.05,-0.01,-0.05,0.02269928,-0.08234681,0.0031212538,0.0016879053,0.0,0.0,0.0016878967,0.0,0.0016878969,1.0549408E-4,0.0,0.34086338,1.0549354E-4,0.0,1.0549356E-4,,1000000.0,316,262,305,259,72,54,50,73,60.15625,60.416668,60.416668,60.208332,59.84375,59.84375,59.84375,59.84375,0.1,0.1,0.1,0.1,1642.9,1647.8,1647.8,1643.5,10.75,10.3,10.61,11.5,0,0,0,0,0.099,3.46,3.46,3.46,3.46,0.3263983,-0.0146221155,-0.015272489,-0.9449959,2.2012804580843666,-1.0129785653826233,141.90998624249067,2397.129,0.07609261,0.096739314,0,0,65109,16697.0,1570.2631,0,4190,12000.0,16709,16697,-1574,5480,91,30,1,318,6022,
1552441200,.637,-106.21645360146327,39.9611940290593,2396.7913,2398.0408,-1.2663572343749365,,14,1.100561170319835,-2.166210740823706,-117.82919205578654,-0.047891535,-0.012782514,-1.0101298,1.0113453,0.4667554,-0.43906063,11.030853,11.049451,-0.011467796,-0.004073608,0.01140815,0.016680842,0.012169824163319819,-400,595,1422,1592.0,64.97,-117.82919205578654,2.4292791942381573,-90.90415233502355,26.925039720762978,242.17080794421346,-128.64895116396272,-10.819759108176186,0.00231312457457733,-0.0012979816364087071,0.02308413844190227,-0.02308413844190227,0.0052270509061758405,0.0015602985555475603,0.04219162027541752,0.016694846725219953,0.005633906756544674,0.030783470079342082,39.961194046761165,-106.21645370768337,false,false,-576.5715207342669,-562.3055207345132,-67.97015114025872,,227.33023940920194,137.18497396955846,137.18497396955846,0.51604366,-0.011229603,-0.017982699,-0.8562999,-0.0912952,0.036513444,-0.016511917,0.005343607,-0.008589376,0.0017705443,100,4690,0,0,64755,-106.2164536,39.961194,20180619,200827,2018-06-19T20:08:27Z,2485.665,0.75,1.27,7.3,8,6,14,-0.01,0.0,0.02,20180619,200827,16280,0.0,0.0,0.0,0.0,ASST_TAKEOFF,2,1,5,5,0,400,805,-3.3705244,-16.418535,1.0,6,1,4,6,0,0,0,0,0,0,0,0,0,0,0,0,0,0,0,0,0,0,65536,16,10,35,0,false,false,false,false,false,false,false,false,false,false,0.05,-0.01,-0.05,0.02269928,-0.08234681,0.0031212538,0.0016879053,0.0,0.0,0.0016878967,0.0,0.0016878969,1.0549408E-4,0.0,0.34086338,1.0549354E-4,0.0,1.0549356E-4,,1000000.0,316,262,305,259,72,54,50,73,60.15625,60.416668,60.416668,60.208332,59.84375,59.84375,59.84375,59.84375,0.1,0.1,0.1,0.1,1642.9,1647.8,1647.8,1643.5,10.75,10.3,10.61,11.5,0,0,0,0,0.099,4.13,4.13,4.13,4.13,0.3263983,-0.0146221155,-0.015272489,-0.9449959,2.2012804580843666,-1.0129785653826233,141.90998624249067,2397.129,0.07609261,0.096739314,0,0,65109,16708.0,1570.2631,0,4190,12000.0,16707,16708,-1574,5480,91,30,1,318,6022,
1552848690,.728,-106.21645360146327,39.9611940290593,2396.7913,2398.0408,-1.2663572343749365,,14,1.100561170319835,-2.166210740823706,-117.82919205578654,-0.047891535,-0.012782514,-1.0101298,1.0113453,0.4667554,-0.43906063,11.030853,11.049451,-0.011467796,-0.004073608,0.01140815,0.016680842,0.012169824163319819,-400,595,1422,1592.0,64.97,-117.82919205578654,2.4292791942381573,-90.90415233502355,26.925039720762978,242.17080794421346,-128.64895116396272,-10.819759108176186,0.00231312457457733,-0.0012979816364087071,0.02308413844190227,-0.02308413844190227,0.0052270509061758405,0.0015602985555475603,0.04219162027541752,0.016694846725219953,0.005633906756544674,0.030783470079342082,39.961194046761165,-106.21645370768337,false,false,-576.5715207342669,-562.3055207345132,-67.97015114025872,,227.33023940920194,137.18497396955846,137.18497396955846,0.51604366,-0.011229603,-0.017982699,-0.8562999,-0.0912952,0.036513444,-0.016511917,0.005343607,-0.008589376,0.0017705443,100,4690,0,0,64755,-106.2164536,39.961194,20180619,200827,2018-06-19T20:08:27Z,2485.665,0.75,1.27,7.3,8,6,14,-0.01,0.0,0.02,20180619,200827,16280,0.0,0.0,0.0,0.0,ASST_TAKEOFF,2,1,5,5,0,400,805,-3.3705244,-16.418535,1.0,6,1,4,6,0,0,0,0,0,0,0,0,0,0,0,0,0,0,0,0,0,0,65536,16,10,35,0,false,false,false,false,false,false,false,false,false,false,0.05,-0.01,-0.05,0.02269928,-0.08234681,0.0031212538,0.0016879053,0.0,0.0,0.0016878967,0.0,0.0016878969,1.0549408E-4,0.0,0.34086338,1.0549354E-4,0.0,1.0549356E-4,,1000000.0,761,653,472,315,73,51,52,73,60.46875,60.729168,60.625,60.520832,60.104168,60.104168,60.104168,60.104168,0.1,0.1,0.1,0.1,1645.9,1651.5,1649.6,1645.3,8.02,8.26,9.99,11.36,0,0,0,0,0.099,4.13,4.13,4.13,4.13,0.3263983,-0.0146221155,-0.015272489,-0.9449959,2.2012804580843666,-1.0129785653826233,141.90998624249067,2397.129,0.07609261,0.096739314,0,0,65109,16708.0,1570.2631,0,4190,12000.0,16707,16708,-1574,5480,91,30,1,318,6022,
1553030459,.768,-106.21645360005552,39.96119402984421,2396.1572,2398.0432,-1.9003904374999365,,14,1.1121940172120894,-2.0628989271447975,-117.85212456396125,-0.027871925,-0.046232242,-1.0153458,1.0167799,0.8043829,-1.7534075,-11.698093,11.856089,-0.0036847594,0.0017467039,-1.0262593E-5,0.00407781,0.00407779673815779,-355,618,1350,1526.0,64.95,-117.85212456396125,2.3431583876429696,-89.52852197369104,28.323602590270216,242.14787543603876,-124.31132622597246,-6.4592016620112105,0.0015235436422607052,-0.001419233746521087,0.02367806828451613,-0.02367806828451613,-0.004304811931741318,0.005789027984709668,-0.10936431989063568,-6.200525588960261E-4,0.004042324114115167,-0.10935405729794002,39.9611940396603,-106.21645370910603,false,false,-576.6062897938332,-562.2392832874592,-68.08439794483239,,227.33038777731156,,,0.5158862,-0.010408693,-0.017602272,-0.856413,0.313132,0.16082418,0.06964779,0.005340474,-0.008591165,0.00177073,100,4691,0,0,64795,-106.2164536,39.961194,20180619,200827,2018-06-19T20:08:27Z,2485.665,0.75,1.27,7.3,8,6,14,-0.01,0.0,0.02,20180619,200827,16290,0.0,0.0,0.0,0.0,ASST_TAKEOFF,2,1,5,5,0,400,805,-3.3721266,-16.41685,1.0,6,1,4,6,0,0,0,0,0,0,0,0,0,0,0,0,0,0,0,0,0,0,65536,16,10,35,0,false,false,false,false,false,false,false,false,false,false,0.05,-0.01,-0.05,0.02269928,-0.08234681,0.0031212538,0.0016879053,0.0,0.0,0.0016878967,0.0,0.0016878969,1.0549408E-4,0.0,0.34086338,1.0549354E-4,0.0,1.0549356E-4,,1000000.0,1511,1448,1414,1357,73,53,51,73,63.958332,64.322914,63.90625,63.854168,63.90625,63.90625,63.90625,63.90625,0.0,0.0,0.0,0.0,1655.2,1661.3,1660.0,1655.8,2.68,2.44,2.9,3.59,0,0,0,0,0.099,11.24,11.24,11.24,11.24,0.3263983,-0.0146221155,-0.015272489,-0.9449959,2.2012804580843666,-1.0129785653826233,141.90998624249067,2397.129,0.07609261,0.096739314,0,0,65109,16708.0,1570.2631,0,4190,12000.0,16707,16708,-1574,5480,91,30,1,318,6022,
1553220924,.811,-106.21645360005552,39.96119402984421,2396.1572,2398.0432,-1.9003904374999365,,14,1.1121940172120894,-2.0628989271447975,-117.85212456396125,-0.027871925,-0.046232242,-1.0153458,1.0167799,0.8043829,-1.7534075,-11.698093,11.856089,-0.0036847594,0.0017467039,-1.0262593E-5,0.00407781,0.00407779673815779,-355,618,1350,1526.0,64.95,-117.85212456396125,2.3431583876429696,-89.52852197369104,28.323602590270216,242.14787543603876,-124.31132622597246,-6.4592016620112105,0.0015235436422607052,-0.001419233746521087,0.02367806828451613,-0.02367806828451613,-0.004304811931741318,0.005789027984709668,-0.10936431989063568,-6.200525588960261E-4,0.004042324114115167,-0.10935405729794002,39.9611940396603,-106.21645370910603,false,false,-576.6062897938332,-562.2392832874592,-68.08439794483239,,227.33038777731156,,,0.5158862,-0.010408693,-0.017602272,-0.856413,0.313132,0.16082418,0.06964779,0.005340474,-0.008591165,0.00177073,100,4691,0,0,64795,-106.2164536,39.961194,20180619,200827,2018-06-19T20:08:27Z,2485.664,0.75,1.27,7.3,8,6,14,0.01,0.0,0.02,20180619,200827,16290,0.0,0.0,0.0,0.0,ASST_TAKEOFF,2,1,5,5,0,400,805,-3.3721266,-16.41685,1.0,6,1,4,6,0,0,0,0,0,0,0,0,0,0,0,0,0,0,0,0,0,0,65536,16,10,35,0,false,false,false,false,false,false,false,false,false,false,0.07,0.0,-0.06,0.022700462,-0.082345955,0.0031201318,0.0016868942,0.0,0.0,0.0016868527,0.0,0.0016868785,1.0543089E-4,0.0,0.3413111,1.0542829E-4,0.0,1.0542991E-4,,1000000.0,1511,1448,1414,1357,73,53,51,73,63.958332,64.322914,63.90625,63.854168,63.90625,63.90625,63.90625,63.90625,0.0,0.0,0.0,0.0,1655.2,1661.3,1660.0,1655.8,2.68,2.44,2.9,3.59,0,0,0,0,0.099,11.24,11.24,11.24,11.24,0.3263983,-0.0146221155,-0.015272489,-0.9449959,2.2012804580843666,-1.0129785653826233,141.90998624249067,2397.129,0.07609261,0.096739314,0,0,65109,16708.0,1570.2631,0,4190,12000.0,16707,16708,-1574,5480,91,30,1,318,6022,
1553379027,.846,-106.21645359746343,39.96119403208821,2396.6804,2398.0437,-1.3771970781249365,,14,1.1223313873948417,-2.009814927153731,-117.86264523443593,-0.039141804,0.0010805456,-1.0045154,1.0052783,1.13996,1.4976108,9.421302,9.607459,-0.0103645995,-7.580834E-4,0.003111571,0.01084811,0.010392286300729017,-377,618,1347,1529.0,65.01,-117.86264523443593,2.30150360343606,-88.68943792406462,29.173207310371314,242.13735476556406,-125.6609906333523,-7.798345398916368,7.916632821469705E-4,-0.0013677330413273125,0.023839626316034312,-0.023839626316034312,-0.004304811931741318,0.005789027984709668,-0.10936431989063568,0.006059787594187179,0.0065471114055153014,-0.11247589096416778,39.96119403307834,-106.21645370850176,false,false,-576.7248958489595,-562.1379956455147,-68.09772329020744,,227.33072104290449,,,0.5158139,-0.009967899,-0.017438121,-0.85646516,-0.2546581,-0.11657108,0.003443718,0.0053247013,-0.0085968105,0.0017713035,100,4691,0,0,64835,-106.2164536,39.961194,20180619,200827,2018-06-19T20:08:27Z,2485.664,0.75,1.27,7.3,8,6,14,0.01,0.0,0.02,20180619,200827,16290,0.0,0.0,0.0,0.0,ASST_TAKEOFF,2,1,5,5,0,400,805,-3.3721266,-16.41685,1.0,6,1,4,6,0,0,0,0,0,0,0,0,0,0,0,0,0,0,0,0,0,0,65536,16,10,35,0,false,false,false,false,false,false,false,false,false,false,0.07,0.0,-0.06,0.022700462,-0.082345955,0.0031201318,0.0016868942,0.0,0.0,0.0016868527,0.0,0.0016868785,1.0543089E-4,0.0,0.3413111,1.0542829E-4,0.0,1.0542991E-4,,1000000.0,1511,1448,1414,1357,73,53,51,73,63.958332,64.322914,63.90625,63.854168,63.90625,63.90625,63.90625,63.90625,0.0,0.0,0.0,0.0,1655.2,1661.3,1660.0,1655.8,2.68,2.44,2.9,3.59,0,0,0,0,0.099,17.49,17.49,17.49,17.49,0.3263983,-0.0146221155,-0.015272489,-0.9449959,2.2012804580843666,-1.0129785653826233,141.90998624249067,2397.129,0.07609261,0.096739314,0,0,65109,16742.0,1570.2631,0,4190,12000.0,16767,16742,-1574,5480,91,30,1,318,6022,
1553777079,.934,-106.21645359746343,39.96119403208821,2396.6804,2398.0437,-1.3771970781249365,,14,1.1223313873948417,-2.009814927153731,-117.86264523443593,-0.039141804,0.0010805456,-1.0045154,1.0052783,1.13996,1.4976108,9.421302,9.607459,-0.0103645995,-7.580834E-4,0.003111571,0.01084811,0.010392286300729017,-377,618,1347,1529.0,65.01,-117.86264523443593,2.30150360343606,-88.68943792406462,29.173207310371314,242.13735476556406,-125.6609906333523,-7.798345398916368,7.916632821469705E-4,-0.0013677330413273125,0.023839626316034312,-0.023839626316034312,-0.004304811931741318,0.005789027984709668,-0.10936431989063568,0.006059787594187179,0.0065471114055153014,-0.11247589096416778,39.96119403307834,-106.21645370850176,false,false,-576.7248958489595,-562.1379956455147,-68.09772329020744,,227.33072104290449,,,0.5158139,-0.009967899,-0.017438121,-0.85646516,-0.2546581,-0.11657108,0.003443718,0.0053247013,-0.0085968105,0.0017713035,100,4691,0,0,64835,-106.2164536,39.961194,20180619,200827,2018-06-19T20:08:27Z,2485.664,0.75,1.27,7.3,8,6,14,0.01,0.0,0.02,20180619,200827,16290,0.0,0.0,0.0,0.0,ASST_TAKEOFF,2,1,5,5,0,400,805,-3.3721266,-16.41685,1.0,6,1,4,6,0,0,0,0,0,0,0,0,0,0,0,0,0,0,0,0,0,0,65536,16,10,35,0,false,false,false,false,false,false,false,false,false,false,0.07,0.0,-0.06,0.022700462,-0.082345955,0.0031201318,0.0016868942,0.0,0.0,0.0016868527,0.0,0.0016868785,1.0543089E-4,0.0,0.3413111,1.0542829E-4,0.0,1.0542991E-4,,1000000.0,1857,1805,1718,1692,73,52,52,72,66.614586,66.979164,66.5625,66.458336,66.510414,66.510414,66.510414,66.510414,0.0,0.0,0.0,0.0,1651.5,1656.4,1657.6,1653.9,2.72,3.04,2.55,1.47,0,0,0,0,0.099,17.49,17.49,17.49,17.49,0.3263983,-0.0146221155,-0.015272489,-0.9449959,2.2012804580843666,-1.0129785653826233,141.90998624249067,2397.129,0.07609261,0.096739314,0,0,65109,16742.0,1570.2631,0,4190,12000.0,16767,16742,-1574,5480,91,30,1,318,6022,
1553967943,.977,-106.2164535964579,39.96119403420844,2396.263,2398.0444,-1.7946775468749365,,14,1.152495656134763,-1.9504760221010677,-117.84245552667926,-0.02886968,-0.041993808,-1.0177095,1.0189846,-1.1947429,-2.9239454,-6.6237025,7.3382764,0.0072857547,0.001648209,-4.717412E-4,0.0074847415,0.007469860324271031,-369,618,1347,1527.0,65.01,-117.84245552667926,2.2650722154503877,-87.2708102977507,30.571645228928563,242.15754447332074,-125.08944334155154,-7.246987814872284,6.312284797438394E-4,-0.0013213496940043257,0.02397718458994369,-0.02397718458994369,-0.004304811931741318,0.005789027984709668,-0.10936431989063568,-0.011590566593748412,0.004140818926961351,-0.1088925786967302,39.961194031635515,-106.21645370795754,false,false,-576.57911640464,-562.1408503130605,-68.17204782520604,,227.3309718955416,,,0.51596856,-0.009385472,-0.017398074,-0.8563794,0.16352835,0.030691026,-0.09591675,0.0053230464,-0.00859722,0.001771387,100,4691,0,0,64875,-106.2164536,39.961194,20180619,200827,2018-06-19T20:08:27Z,2485.664,0.75,1.27,7.3,8,6,14,0.01,0.0,0.02,20180619,200827,16300,0.0,0.0,0.0,0.0,ASST_TAKEOFF,2,1,5,5,0,400,805,-3.3716407,-16.416542,1.0,6,1,4,6,0,0,0,0,0,0,0,0,0,0,0,0,0,0,0,0,0,0,65536,16,10,35,0,false,false,false,false,false,false,false,false,false,false,0.07,0.0,-0.06,0.022700462,-0.082345955,0.0031201318,0.0016868942,0.0,0.0,0.0016868527,0.0,0.0016868785,1.0543089E-4,0.0,0.3413111,1.0542829E-4,0.0,1.0542991E-4,,1000000.0,2390,2411,2333,2332,73,52,51,74,69.21875,69.583336,69.166664,69.114586,69.114586,69.114586,69.114586,69.114586,0.0,0.0,0.0,0.0,1650.2,1654.6,1654.6,1651.5,3.06,2.98,3.02,3.28,0,0,0,0,0.099,23.74,23.74,23.74,23.74,0.32762986,-0.012615386,-0.014596867,-0.94460917,2.054093948263908,-0.818077093020793,141.75730658052734,2396.9463,0.18937121,-0.061238907,0,0,65209,16742.0,1570.2631,0,4190,12000.0,16767,16742,-1574,5480,91,30,1,318,6022,
1554158165,1.019,-106.2164535964579,39.96119403420844,2396.263,2398.0444,-1.7946775468749365,,14,1.152495656134763,-1.9504760221010677,-117.84245552667926,-0.02886968,-0.041993808,-1.0177095,1.0189846,-1.1947429,-2.9239454,-6.6237025,7.3382764,0.0072857547,0.001648209,-4.717412E-4,0.0074847415,0.007469860324271031,-369,618,1347,1527.0,65.01,-117.84245552667926,2.2650722154503877,-87.2708102977507,30.571645228928563,242.15754447332074,-125.08944334155154,-7.246987814872284,6.312284797438394E-4,-0.0013213496940043257,0.02397718458994369,-0.02397718458994369,-0.004304811931741318,0.005789027984709668,-0.10936431989063568,-0.011590566593748412,0.004140818926961351,-0.1088925786967302,39.961194031635515,-106.21645370795754,false,false,-576.57911640464,-562.1408503130605,-68.17204782520604,,227.3309718955416,,,0.51596856,-0.009385472,-0.017398074,-0.8563794,0.16352835,0.030691026,-0.09591675,0.0053230464,-0.00859722,0.001771387,100,4691,0,0,64875,-106.2164535,39.961194,20180619,200828,2018-06-19T20:08:28Z,2485.667,0.75,1.27,7.3,8,6,14,-0.01,0.01,0.01,20180619,200828,16300,0.0,0.0,0.0,0.0,ASST_TAKEOFF,2,1,5,5,0,400,805,-3.3716407,-16.416542,1.0,6,1,4,6,0,0,0,0,0,0,0,0,0,0,0,0,0,0,0,0,0,0,65536,16,10,35,0,false,false,false,false,false,false,false,false,false,false,0.08,-0.01,-0.07,0.022704719,-0.0823454,0.0031186445,0.0016859157,0.0,0.0,0.0016858991,0.0,0.0016858539,1.05369734E-4,0.0,0.34097117,1.05368694E-4,0.0,1.0536587E-4,,1000000.0,2390,2411,2333,2332,73,52,51,74,69.21875,69.583336,69.166664,69.114586,69.114586,69.114586,69.114586,69.114586,0.0,0.0,0.0,0.0,1650.2,1654.6,1654.6,1651.5,3.06,2.98,3.02,3.28,0,0,0,0,0.099,23.74,23.74,23.74,23.74,0.32762986,-0.012615386,-0.014596867,-0.94460917,2.054093948263908,-0.818077093020793,141.75730658052734,2396.9463,0.18937121,-0.061238907,0,0,65209,16742.0,1570.2631,0,4190,12000.0,16767,16742,-1574,5480,91,30,1,318,6022,
1554316069,1.054,-106.21645358682701,39.961194036475234,2396.0198,2398.0452,-2.0378416093749365,,14,1.0831883135065394,-1.8874025519039397,-117.87724974206888,-0.030889768,-0.0046868883,-1.0020236,1.0025105,1.7536968,-0.852157,4.349161,4.766217,0.0119926445,6.6601206E-5,-0.0023538214,0.012221638,0.011992829432609228,-408,618,1356,1545.0,65.01,-117.87724974206888,2.1757501964626793,-88.03155506345352,29.845694678615352,242.1227502579311,-127.40013836053396,-9.522888618465075,0.0016337428902595263,-0.0012321762110705237,0.023830249815580018,-0.023830249815580018,0.0023601673666452934,0.003608891436589746,-0.00625183159128651,-0.009632477151968522,0.0035422902309725566,-0.0038980101758323603,39.96119404065135,-106.21645370691125,false,false,-576.6973969987607,-562.111783619528,-68.36841252643681,,227.3318305512631,,,0.5157296,-0.009231385,-0.016593412,-0.856541,-0.06186659,0.0284851,0.21016312,0.0053390227,-0.008594203,0.0017711322,100,4692,0,0,64915,-106.2164535,39.961194,20180619,200828,2018-06-19T20:08:28Z,2485.667,0.75,1.27,7.3,8,6,14,-0.01,0.01,0.01,20180619,200828,16300,0.0,0.0,0.0,0.0,ASST_TAKEOFF,2,1,5,5,0,400,805,-3.3716407,-16.416542,1.0,6,1,4,6,0,0,0,0,0,0,0,0,0,0,0,0,0,0,0,0,0,0,65536,16,10,35,0,false,false,false,false,false,false,false,false,false,false,0.08,-0.01,-0.07,0.022704719,-0.0823454,0.0031186445,0.0016859157,0.0,0.0,0.0016858991,0.0,0.0016858539,1.05369734E-4,0.0,0.34097117,1.05368694E-4,0.0,1.0536587E-4,,1000000.0,2390,2411,2333,2332,73,52,51,74,69.21875,69.583336,69.166664,69.114586,69.114586,69.114586,69.114586,69.114586,0.0,0.0,0.0,0.0,1650.2,1654.6,1654.6,1651.5,3.06,2.98,3.02,3.28,0,0,0,0,0.099,29.99,29.99,29.99,29.99,0.32762986,-0.012615386,-0.014596867,-0.94460917,2.054093948263908,-0.818077093020793,141.75730658052734,2396.9463,0.18937121,-0.061238907,0,0,65209,16773.0,1570.2631,0,4190,12000.0,16805,16773,-1574,5480,91,30,1,318,6022,
1554723737,1.145,-106.21645358682701,39.961194036475234,2396.0198,2398.0452,-2.0378416093749365,,14,1.0831883135065394,-1.8874025519039397,-117.87724974206888,-0.030889768,-0.0046868883,-1.0020236,1.0025105,1.7536968,-0.852157,4.349161,4.766217,0.0119926445,6.6601206E-5,-0.0023538214,0.012221638,0.011992829432609228,-408,618,1356,1545.0,65.01,-117.87724974206888,2.1757501964626793,-88.03155506345352,29.845694678615352,242.1227502579311,-127.40013836053396,-9.522888618465075,0.0016337428902595263,-0.0012321762110705237,0.023830249815580018,-0.023830249815580018,0.0023601673666452934,0.003608891436589746,-0.00625183159128651,-0.009632477151968522,0.0035422902309725566,-0.0038980101758323603,39.96119404065135,-106.21645370691125,false,false,-576.6973969987607,-562.111783619528,-68.36841252643681,,227.3318305512631,,,0.5157296,-0.009231385,-0.016593412,-0.856541,-0.06186659,0.0284851,0.21016312,0.0053390227,-0.008594203,0.0017711322,100,4692,0,0,64915,-106.2164535,39.961194,20180619,200828,2018-06-19T20:08:28Z,2485.667,0.75,1.27,7.3,8,6,14,-0.01,0.01,0.01,20180619,200828,16300,0.0,0.0,0.0,0.0,ASST_TAKEOFF,2,1,5,5,0,400,805,-3.3716407,-16.416542,1.0,6,1,4,6,0,0,0,0,0,0,0,0,0,0,0,0,0,0,0,0,0,0,65536,16,10,35,0,false,false,false,false,false,false,false,false,false,false,0.08,-0.01,-0.07,0.022704719,-0.0823454,0.0031186445,0.0016859157,0.0,0.0,0.0016858991,0.0,0.0016858539,1.05369734E-4,0.0,0.34097117,1.05368694E-4,0.0,1.0536587E-4,,1000000.0,2907,2927,2852,2865,73,52,52,73,71.770836,72.239586,71.822914,71.71875,71.71875,71.71875,71.71875,71.71875,0.0,0.0,0.0,0.0,1646.6,1651.5,1651.5,1647.2,3.48,3.22,3.2,3.36,0,0,0,0,0.099,29.99,29.99,29.99,29.99,0.32762986,-0.012615386,-0.014596867,-0.94460917,2.054093948263908,-0.818077093020793,141.75730658052734,2396.9463,0.18937121,-0.061238907,0,0,65209,16773.0,1570.2631,0,4190,12000.0,16805,16773,-1574,5480,91,30,1,318,6022,
1554905562,1.185,-106.21645358975425,39.96119404231809,2395.7239,2398.0457,-2.3337400468749365,,14,1.1712829884555056,-1.994154762237019,-117.84236313928268,-0.03248972,-0.029724862,-1.0029049,1.0038712,4.2805104,-3.6476433,-1.0557343,5.722119,0.00972772,-8.10042E-4,-0.0025244944,0.010082548,0.0097613884259644,-394,618,1350,1536.0,64.98,-117.84236313928268,2.3122160315333997,-87.42079087174136,30.421572267541304,242.15763686071733,-126.77420407460211,-8.931840935319428,0.002765564261959952,-0.0012709159936878933,0.023576046803500006,-0.023576046803500006,0.0023601673666452934,0.003608891436589746,-0.00625183159128651,-0.007367552804567856,0.004418933460248499,-0.003727337164961546,39.961194050830066,-106.2164537073658,false,false,-576.5257805930373,-561.7973485354086,-68.60289156250802,,227.33252650219436,,,0.5159593,-0.00962724,-0.017735125,-0.8563754,-0.018578855,-0.04111996,0.0040197372,0.005338556,-0.008593533,0.0017708914,100,4692,0,0,64955,-106.2164535,39.961194,20180619,200828,2018-06-19T20:08:28Z,2485.667,0.75,1.27,7.3,8,6,14,-0.01,0.01,0.01,20180619,200828,16310,0.0,0.0,0.0,0.0,ASST_TAKEOFF,2,1,5,5,0,400,805,-3.370738,-16.41597,1.0,6,1,4,6,0,0,0,0,0,0,0,0,0,0,0,0,0,0,0,0,0,0,65536,16,10,35,0,false,false,false,false,false,false,false,false,false,false,0.08,-0.01,-0.07,0.022704719,-0.0823454,0.0031186445,0.0016859157,0.0,0.0,0.0016858991,0.0,0.0016858539,1.05369734E-4,0.0,0.34097117,1.05368694E-4,0.0,1.0536587E-4,,1000000.0,2634,2580,2743,2689,72,51,51,72,63.958332,64.322914,63.90625,63.854168,63.90625,63.90625,63.90625,63.90625,0.0,0.0,0.0,0.0,1668.0,1671.7,1674.8,1668.0,3.86,3.4,4.9,4.72,0,0,0,0,0.099,11.24,11.24,11.24,11.24,0.32762986,-0.012615386,-0.014596867,-0.94460917,2.054093948263908,-0.818077093020793,141.75730658052734,2396.9463,0.18937121,-0.061238907,0,0,65209,16773.0,1570.2631,0,4190,12000.0,16805,16773,-1574,5480,91,30,1,318,6022,
1555095532,1.227,-106.21645358975425,39.96119404231809,2395.7239,2398.0457,-2.3337400468749365,,14,1.1712829884555056,-1.994154762237019,-117.84236313928268,-0.03248972,-0.029724862,-1.0029049,1.0038712,4.2805104,-3.6476433,-1.0557343,5.722119,0.00972772,-8.10042E-4,-0.0025244944,0.010082548,0.0097613884259644,-394,618,1350,1536.0,64.98,-117.84236313928268,2.3122160315333997,-87.42079087174136,30.421572267541304,242.15763686071733,-126.77420407460211,-8.931840935319428,0.002765564261959952,-0.0012709159936878933,0.023576046803500006,-0.023576046803500006,0.0023601673666452934,0.003608891436589746,-0.00625183159128651,-0.007367552804567856,0.004418933460248499,-0.003727337164961546,39.961194050830066,-106.2164537073658,false,false,-576.5257805930373,-561.7973485354086,-68.60289156250802,,227.33252650219436,,,0.5159593,-0.00962724,-0.017735125,-0.8563754,-0.018578855,-0.04111996,0.0040197372,0.005338556,-0.008593533,0.0017708914,100,4692,0,0,64955,-106.2164535,39.961194,20180619,200828,2018-06-19T20:08:28Z,2485.671,0.75,1.27,7.3,8,6,14,0.01,0.01,0.01,20180619,200828,16310,0.0,0.0,0.0,0.0,ASST_TAKEOFF,2,1,5,5,0,400,805,-3.370738,-16.41597,1.0,6,1,4,6,0,0,0,0,0,0,0,0,0,0,0,0,0,0,0,0,0,0,65536,16,10,35,0,false,false,false,false,false,false,false,false,false,false,0.02,-0.06,-0.01,0.022703538,-0.08234859,0.0031172687,0.0016854105,0.0,0.0,0.001685363,0.0,0.0016853542,1.0533816E-4,0.0,0.3406714,1.0533519E-4,0.0,1.05334635E-4,,1000000.0,2634,2580,2743,2689,72,51,51,72,63.958332,64.322914,63.90625,63.854168,63.90625,63.90625,63.90625,63.90625,0.0,0.0,0.0,0.0,1668.0,1671.7,1674.8,1668.0,3.86,3.4,4.9,4.72,0,0,0,0,0.099,11.24,11.24,11.24,11.24,0.32762986,-0.012615386,-0.014596867,-0.94460917,2.054093948263908,-0.818077093020793,141.75730658052734,2396.9463,0.18937121,-0.061238907,0,0,65209,16773.0,1570.2631,0,4190,12000.0,16805,16773,-1574,5480,91,30,1,318,6022,
1555253623,1.262,-106.21645358993302,39.96119404465654,2396.3765,2398.046,-1.6811521562499365,,14,1.1302856998575894,-2.0364826268772838,-117.87211672311645,-0.053783134,0.003713907,-1.0030061,1.0044539,2.4077463,4.9408846,2.310115,5.9620647,0.008991631,0.0014792837,-4.35879E-4,0.009122921,0.009112502565541147,-380,618,1347,1529.0,65.0,-117.87211672311645,2.328659920314681,-88.84811429762857,29.02400242548788,242.12788327688355,-125.90091461930088,-8.028797896184429,0.0037401496094950915,-0.0012360732735050561,0.023421920917103378,-0.023421920917103378,0.0023601673666452934,0.003608891436589746,-0.00625183159128651,-0.0066314633812690205,0.0021296077629009767,-0.005815952602931111,39.96119405959472,-106.21645370695698,false,false,-576.4604737789919,-561.4491379031023,-68.53556155781699,,227.33278697150342,,,0.51573765,-0.010132845,-0.017616762,-0.8565055,0.18819265,-0.019952737,-0.004486084,0.0053272825,-0.008600673,0.0017705584,100,4692,0,0,64995,-106.2164535,39.961194,20180619,200828,2018-06-19T20:08:28Z,2485.671,0.75,1.27,7.3,8,6,14,0.01,0.01,0.01,20180619,200828,16310,0.0,0.0,0.0,0.0,ASST_TAKEOFF,2,1,5,5,0,400,805,-3.370738,-16.41597,1.0,6,1,4,6,0,0,0,0,0,0,0,0,0,0,0,0,0,0,0,0,0,0,65536,16,10,35,0,false,false,false,false,false,false,false,false,false,false,0.02,-0.06,-0.01,0.022703538,-0.08234859,0.0031172687,0.0016854105,0.0,0.0,0.001685363,0.0,0.0016853542,1.0533816E-4,0.0,0.3406714,1.0533519E-4,0.0,1.05334635E-4,,1000000.0,2634,2580,2743,2689,72,51,51,72,63.958332,64.322914,63.90625,63.854168,63.90625,63.90625,63.90625,63.90625,0.0,0.0,0.0,0.0,1668.0,1671.7,1674.8,1668.0,3.86,3.4,4.9,4.72,0,0,0,0,0.099,17.49,17.49,17.49,17.49,0.32762986,-0.012615386,-0.014596867,-0.94460917,2.054093948263908,-0.818077093020793,141.75730658052734,2396.9463,0.18937121,-0.061238907,0,0,65209,16723.0,1570.938,0,4174,12000.0,16804,16723,-1570,5480,91,30,1,319,6022,
1555652090,1.351,-106.21645358993302,39.96119404465654,2396.3765,2398.046,-1.6811521562499365,,14,1.1302856998575894,-2.0364826268772838,-117.87211672311645,-0.053783134,0.003713907,-1.0030061,1.0044539,2.4077463,4.9408846,2.310115,5.9620647,0.008991631,0.0014792837,-4.35879E-4,0.009122921,0.009112502565541147,-380,618,1347,1529.0,65.0,-117.87211672311645,2.328659920314681,-88.84811429762857,29.02400242548788,242.12788327688355,-125.90091461930088,-8.028797896184429,0.0037401496094950915,-0.0012360732735050561,0.023421920917103378,-0.023421920917103378,0.0023601673666452934,0.003608891436589746,-0.00625183159128651,-0.0066314633812690205,0.0021296077629009767,-0.005815952602931111,39.96119405959472,-106.21645370695698,false,false,-576.4604737789919,-561.4491379031023,-68.53556155781699,,227.33278697150342,,,0.51573765,-0.010132845,-0.017616762,-0.8565055,0.18819265,-0.019952737,-0.004486084,0.0053272825,-0.008600673,0.0017705584,100,4692,0,0,64995,-106.2164535,39.961194,20180619,200828,2018-06-19T20:08:28Z,2485.671,0.75,1.27,7.3,8,6,14,0.01,0.01,0.01,20180619,200828,16310,0.0,0.0,0.0,0.0,ASST_TAKEOFF,2,1,5,5,0,400,805,-3.370738,-16.41597,1.0,6,1,4,6,0,0,0,0,0,0,0,0,0,0,0,0,0,0,0,0,0,0,65536,16,10,35,0,false,false,false,false,false,false,false,false,false,false,0.02,-0.06,-0.01,0.022703538,-0.08234859,0.0031172687,0.0016854105,0.0,0.0,0.001685363,0.0,0.0016853542,1.0533816E-4,0.0,0.3406714,1.0533519E-4,0.0,1.05334635E-4,,1000000.0,2217,2213,2200,2208,73,53,53,73,66.5625,66.927086,66.510414,66.458336,66.510414,66.510414,66.510414,66.510414,0.0,0.0,0.0,0.0,1659.4,1662.5,1663.7,1658.8,0.16,0.14,0.02,0.01,0,0,0,0,0.099,17.49,17.49,17.49,17.49,0.32762986,-0.012615386,-0.014596867,-0.94460917,2.054093948263908,-0.818077093020793,141.75730658052734,2396.9463,0.18937121,-0.061238907,0,0,65209,16723.0,1570.938,0,4174,12000.0,16804,16723,-1570,5480,91,30,1,319,6022,
1555843076,1.393,-106.21645353961107,39.961194052046416,2395.9272,2398.0461,-2.1303709062499365,,14,1.154753368265416,-1.990665011144102,-117.8511077268059,-0.045951568,-0.03003772,-1.0167711,1.018252,-1.0760143,4.7362604,-1.2071792,5.004723,0.013072427,0.0058142673,-0.00272517,0.0145643605,0.014307132832910128,-369,621,1347,1528.0,65.02,-117.8511077268059,2.3008820069120683,-87.74040504282199,30.110702683983906,242.1488922731941,-125.01683525276977,-7.1657275259638595,0.004889543749936109,-8.561266319535576E-4,0.023257250793422557,-0.023257250793422557,0.005540055409328463,0.012876025850940487,-0.003124694854018162,-0.007532371952875135,0.007061758528519414,-3.9952486008114655E-4,39.961194069931466,-106.21645370249901,false,false,-576.40301798069,-561.3797633125504,-68.0314451478349,,227.3371538520996,79.1539783769882,79.1539783769882,0.51589745,-0.0096769715,-0.01759517,-0.85641503,-0.06442034,-0.06732542,-0.28922844,0.005326609,-0.008600761,0.0017702697,100,4692,0,0,65035,-106.2164535,39.961194,20180619,200828,2018-06-19T20:08:28Z,2485.671,0.75,1.27,7.3,8,6,14,0.01,0.01,0.01,20180619,200828,16320,0.0,0.0,0.0,0.0,ASST_TAKEOFF,2,1,5,5,0,400,805,-3.3696551,-16.411692,1.0,6,1,4,6,0,0,0,0,0,0,0,0,0,0,0,0,0,0,0,0,0,0,65536,16,10,35,0,false,false,false,false,false,false,false,false,false,false,0.02,-0.06,-0.01,0.022703538,-0.08234859,0.0031172687,0.0016854105,0.0,0.0,0.001685363,0.0,0.0016853542,1.0533816E-4,0.0,0.3406714,1.0533519E-4,0.0,1.05334635E-4,,1000000.0,2438,2476,2405,2404,74,52,51,74,69.166664,69.583336,69.166664,69.0625,69.114586,69.114586,69.114586,69.114586,0.0,0.0,0.0,0.0,1650.8,1655.2,1657.0,1652.1,2.56,2.3,2.3,2.37,0,0,0,0,0.099,23.74,23.74,23.74,23.74,0.32762986,-0.012615386,-0.014596867,-0.94460917,2.054093948263908,-0.818077093020793,141.75730658052734,2396.9463,0.18937121,-0.061238907,0,0,65209,16723.0,1570.938,0,4174,12000.0,16804,16723,-1570,5480,91,30,1,319,6022,
1556009145,1.430,-106.21645353961107,39.961194052046416,2395.9272,2398.0461,-2.1303709062499365,,14,1.154753368265416,-1.990665011144102,-117.8511077268059,-0.045951568,-0.03003772,-1.0167711,1.018252,-1.0760143,4.7362604,-1.2071792,5.004723,0.013072427,0.0058142673,-0.00272517,0.0145643605,0.014307132832910128,-369,621,1347,1528.0,65.02,-117.8511077268059,2.3008820069120683,-87.74040504282199,30.110702683983906,242.1488922731941,-125.01683525276977,-7.1657275259638595,0.004889543749936109,-8.561266319535576E-4,0.023257250793422557,-0.023257250793422557,0.005540055409328463,0.012876025850940487,-0.003124694854018162,-0.007532371952875135,0.007061758528519414,-3.9952486008114655E-4,39.961194069931466,-106.21645370249901,false,false,-576.40301798069,-561.3797633125504,-68.0314451478349,,227.3371538520996,79.1539783769882,79.1539783769882,0.51589745,-0.0096769715,-0.01759517,-0.85641503,-0.06442034,-0.06732542,-0.28922844,0.005326609,-0.008600761,0.0017702697,100,4692,0,0,65035,-106.2164535,39.9611939,20180619,200828,2018-06-19T20:08:28Z,2485.673,0.75,1.27,7.3,8,6,14,0.0,0.0,0.01,20180619,200828,16320,0.0,0.0,0.0,0.0,ASST_TAKEOFF,2,1,5,5,0,400,805,-3.3696551,-16.411692,1.0,6,1,4,6,0,0,0,0,0,0,0,0,0,0,0,0,0,0,0,0,0,0,65536,16,10,35,0,false,false,false,false,false,false,false,false,false,false,0.04,-0.01,-0.05,0.02270207,-0.0823476,0.0031197816,0.0016852074,0.0,0.0,0.0016852298,0.0,0.0016852116,1.0532546E-4,0.0,0.34054536,1.05326864E-4,0.0,1.0532572E-4,,1000000.0,2438,2476,2405,2404,74,52,51,74,69.166664,69.583336,69.166664,69.0625,69.114586,69.114586,69.114586,69.114586,0.0,0.0,0.0,0.0,1650.8,1655.2,1657.0,1652.1,2.56,2.3,2.3,2.37,0,0,0,0,0.099,23.74,23.74,23.74,23.74,0.32762986,-0.012615386,-0.014596867,-0.94460917,2.054093948263908,-0.818077093020793,141.75730658052734,2396.9463,0.18937121,-0.061238907,0,0,65209,16723.0,1570.938,0,4174,12000.0,16804,16723,-1570,5480,91,30,1,319,6022,
1556191283,1.471,-106.2164534090466,39.96119403840005,2395.5415,2398.0464,-2.5161130937499365,,14,1.0795355555021773,-1.9398137521070666,-117.8634610204431,-0.042337846,-0.012109159,-1.0119294,1.0128871,-0.10953777,0.5759715,1.9639914,2.0496352,0.014279403,0.0072855647,-0.0018709085,0.016139427,0.016030620650494293,-394,609,1347,1529.0,65.04,-117.8634610204431,2.219570815161727,-88.77328758196003,29.090173438483063,242.13653897955692,-127.00254817550544,-9.139087155062342,0.006314396474362383,-1.7371045718483913E-4,0.023017824949301158,-0.023017824949301158,0.005540055409328463,0.012876025850940487,-0.003124694854018162,-0.008739347383125304,0.005590461178738616,-0.0012537863124132856,39.96119408274547,-106.21645369449213,false,false,-576.3635929791412,-561.4415228753779,-67.75471236431405,,227.3483846670517,97.76503741739803,97.76503741739803,0.5158256,-0.00963757,-0.016803153,-0.8564746,0.112137355,0.07358024,0.022528648,0.0053331642,-0.008591253,0.0017697306,100,4693,0,0,65075,-106.2164535,39.9611939,20180619,200828,2018-06-19T20:08:28Z,2485.673,0.75,1.27,7.3,8,6,14,0.0,0.0,0.01,20180619,200828,16320,0.0,0.0,0.0,0.0,ASST_TAKEOFF,2,1,5,5,0,400,805,-3.3696551,-16.411692,1.0,6,1,4,6,0,0,0,0,0,0,0,0,0,0,0,0,0,0,0,0,0,0,65536,16,10,35,0,false,false,false,false,false,false,false,false,false,false,0.04,-0.01,-0.05,0.02270207,-0.0823476,0.0031197816,0.0016852074,0.0,0.0,0.0016852298,0.0,0.0016852116,1.0532546E-4,0.0,0.34054536,1.05326864E-4,0.0,1.0532572E-4,,1000000.0,2438,2476,2405,2404,74,52,51,74,69.166664,69.583336,69.166664,69.0625,69.114586,69.114586,69.114586,69.114586,0.0,0.0,0.0,0.0,1650.8,1655.2,1657.0,1652.1,2.56,2.3,2.3,2.37,0,0,0,0,0.099,29.99,29.99,29.99,29.99,0.3266941,-0.0129530765,-0.01427094,-0.9449337,2.0306187819726316,-0.8689037752534885,141.87155127152374,2396.579,0.34860125,-0.02390737,0,0,65309,16672.0,1570.938,0,4174,12000.0,16841,16672,-1570,5480,91,30,1,319,6022,
1556562139,1.553,-106.2164534090466,39.96119403840005,2395.5415,2398.0464,-2.5161130937499365,,14,1.0795355555021773,-1.9398137521070666,-117.8634610204431,-0.042337846,-0.012109159,-1.0119294,1.0128871,-0.10953777,0.5759715,1.9639914,2.0496352,0.014279403,0.0072855647,-0.0018709085,0.016139427,0.016030620650494293,-394,609,1347,1529.0,65.04,-117.8634610204431,2.219570815161727,-88.77328758196003,29.090173438483063,242.13653897955692,-127.00254817550544,-9.139087155062342,0.006314396474362383,-1.7371045718483913E-4,0.023017824949301158,-0.023017824949301158,0.005540055409328463,0.012876025850940487,-0.003124694854018162,-0.008739347383125304,0.005590461178738616,-0.0012537863124132856,39.96119408274547,-106.21645369449213,false,false,-576.3635929791412,-561.4415228753779,-67.75471236431405,,227.3483846670517,97.76503741739803,97.76503741739803,0.5158256,-0.00963757,-0.016803153,-0.8564746,0.112137355,0.07358024,0.022528648,0.0053331642,-0.008591253,0.0017697306,100,4693,0,0,65075,-106.2164535,39.9611939,20180619,200828,2018-06-19T20:08:28Z,2485.673,0.75,1.27,7.3,8,6,14,0.0,0.0,0.01,20180619,200828,16320,0.0,0.0,0.0,0.0,ASST_TAKEOFF,2,1,5,5,0,400,805,-3.3696551,-16.411692,1.0,6,1,4,6,0,0,0,0,0,0,0,0,0,0,0,0,0,0,0,0,0,0,65536,16,10,35,0,false,false,false,false,false,false,false,false,false,false,0.04,-0.01,-0.05,0.02270207,-0.0823476,0.0031197816,0.0016852074,0.0,0.0,0.0016852298,0.0,0.0016852116,1.0532546E-4,0.0,0.34054536,1.05326864E-4,0.0,1.0532572E-4,,1000000.0,2912,2945,2858,2873,74,51,52,74,71.770836,72.1875,71.770836,71.666664,71.71875,71.71875,71.71875,71.71875,0.0,0.0,0.0,0.0,1645.9,1649.6,1651.5,1647.2,3.4,3.08,3.14,3.28,0,0,0,0,0.099,29.99,29.99,29.99,29.99,0.3266941,-0.0129530765,-0.01427094,-0.9449337,2.0306187819726316,-0.8689037752534885,141.87155127152374,2396.579,0.34860125,-0.02390737,0,0,65309,16672.0,1570.938,0,4174,12000.0,16841,16672,-1570,5480,91,30,1,319,6022,
1556781016,1.602,-106.21645338815358,39.961194045643374,2396.0938,2398.0469,-1.9638669999999365,,14,1.1046273923223726,-1.7739837419776923,-117.84769993495246,-0.030919258,-0.0267651,-1.012605,1.0134304,0.58064973,-8.415748,0.36838576,8.443794,0.010730099,0.007227631,-0.0041412646,0.013583952,0.012937297619016188,-380,612,1344,1524.0,65.04,-117.84769993495246,2.089416510635887,-85.94296063230763,31.904739302644835,242.15230006504754,-125.74606083841809,-7.89836090346563,0.007617992328459167,5.827756848102439E-4,0.022704446295813696,-0.022704446295813696,0.005540055409328463,0.012876025850940487,-0.003124694854018162,-0.005190043523653028,0.005648395030815146,0.0010165697410731808,39.96119409446899,-106.21645368561617,false,false,-576.2420200970987,-561.4169666244962,-68.16335304053574,,227.35033902899508,65.66226604421881,65.66226604421881,0.51596326,-0.0082828775,-0.016245313,-0.85641664,0.021712232,0.015277825,-0.036042213,0.0053336886,-0.008591264,0.0017696396,100,4693,0,0,65115,-106.2164535,39.9611939,20180619,200828,2018-06-19T20:08:28Z,2485.673,0.75,1.27,7.3,8,6,14,0.0,0.0,0.01,20180619,200828,16330,0.0,0.0,0.0,0.0,AutoTakeoff,2,1,5,5,0,400,805,-3.3703678,-16.39877,1.0,6,1,6,6,0,0,0,0,0,0,0,0,0,0,0,0,0,0,0,0,0,0,65536,16,10,35,0,false,false,false,false,false,false,false,false,false,false,0.04,-0.01,-0.05,0.02270207,-0.0823476,0.0031197816,0.0016852074,0.0,0.0,0.0016852298,0.0,0.0016852116,1.0532546E-4,0.0,0.34054536,1.05326864E-4,0.0,1.0532572E-4,,1000000.0,3014,2925,3112,3063,73,51,52,74,65.989586,66.510414,65.520836,65.9375,66.354164,66.041664,66.197914,66.354164,0.0,0.0,0.0,0.0,1667.4,1669.9,1675.4,1668.0,3.29,2.91,4.04,3.53,0,0,0,0,0.099,14.82,14.54,13.67,13.73,0.3266941,-0.0129530765,-0.01427094,-0.9449337,2.0306187819726316,-0.8689037752534885,141.87155127152374,2396.579,0.34860125,-0.02390737,0,0,65309,16672.0,1570.938,0,4174,12000.0,16841,16672,-1570,5480,91,30,1,319,6022,
1556970646,1.644,-106.21645338815358,39.961194045643374,2396.0938,2398.0469,-1.9638669999999365,,14,1.1046273923223726,-1.7739837419776923,-117.84769993495246,-0.030919258,-0.0267651,-1.012605,1.0134304,0.58064973,-8.415748,0.36838576,8.443794,0.010730099,0.007227631,-0.0041412646,0.013583952,0.012937297619016188,-380,612,1344,1524.0,65.04,-117.84769993495246,2.089416510635887,-85.94296063230763,31.904739302644835,242.15230006504754,-125.74606083841809,-7.89836090346563,0.007617992328459167,5.827756848102439E-4,0.022704446295813696,-0.022704446295813696,0.005540055409328463,0.012876025850940487,-0.003124694854018162,-0.005190043523653028,0.005648395030815146,0.0010165697410731808,39.96119409446899,-106.21645368561617,false,false,-576.2420200970987,-561.4169666244962,-68.16335304053574,,227.35033902899508,65.66226604421881,65.66226604421881,0.51596326,-0.0082828775,-0.016245313,-0.85641664,0.021712232,0.015277825,-0.036042213,0.0053336886,-0.008591264,0.0017696396,100,4693,0,0,65115,-106.2164535,39.9611939,20180619,200828,2018-06-19T20:08:28Z,2485.673,0.75,1.27,7.3,8,6,14,0.01,0.01,0.01,20180619,200828,16330,0.0,0.0,0.0,0.0,AutoTakeoff,2,1,5,5,0,400,805,-3.3703678,-16.39877,1.0,6,1,6,6,0,0,0,0,0,0,0,0,0,0,0,0,0,0,0,0,0,0,65536,16,10,35,0,false,false,false,false,false,false,false,false,false,false,0.09,0.01,-0.08,0.022707507,-0.0823412,0.003114117,0.0016848713,0.0,0.0,0.0016848128,0.0,0.0016847793,1.05304454E-4,0.0,0.3404298,1.053008E-4,0.0,1.05298706E-4,,1000000.0,3014,2925,3112,3063,73,51,52,74,65.989586,66.510414,65.520836,65.9375,66.354164,66.041664,66.197914,66.354164,0.0,0.0,0.0,0.0,1667.4,1669.9,1675.4,1668.0,3.29,2.91,4.04,3.53,0,0,0,0,0.099,14.82,14.54,13.67,13.73,0.3266941,-0.0129530765,-0.01427094,-0.9449337,2.0306187819726316,-0.8689037752534885,141.87155127152374,2396.579,0.34860125,-0.02390737,0,0,65309,16672.0,1570.938,0,4174,12000.0,16841,16672,-1570,5480,91,30,1,319,6022,
1557128905,1.679,-106.21645336705949,39.961194048229345,2396.765,2398.0474,-1.2927244218749365,,14,0.9931528471616434,-1.5887004446993254,-117.87579156072789,-0.026957478,-0.013391388,-1.0037605,1.0042117,-4.9914427,-1.7751926,0.04443366,5.2979035,0.011435502,0.0072500277,-0.0042743203,0.014198712,0.013540074360096785,-392,615,1330,1516.0,65.01,-117.87579156072789,1.8733155278466624,-85.86885276538477,32.00693879534312,242.1242084392721,-125.9369176899078,-8.061126129179911,0.008771999760949,0.0013365258523005963,0.02226630579684219,-0.02226630579684219,-0.0013579377049850146,0.04705109001134007,-0.0039054872095293887,-0.012793439913754336,0.03980106228027909,3.6883311349083115E-4,39.96119410484724,-106.2164536767723,false,false,-576.2205274843282,-561.6466056859973,-68.69392384391323,,227.352159700718,80.9129910612935,80.9129910612935,0.51579505,-0.0074038715,-0.01457621,-0.85655606,0.14425126,-0.047036678,0.045535088,0.0053280876,-0.008600708,0.0017695209,100,4694,0,0,65155,-106.2164535,39.9611939,20180619,200828,2018-06-19T20:08:28Z,2485.673,0.75,1.27,7.3,8,6,14,0.01,0.01,0.01,20180619,200828,16330,0.0,0.0,0.0,0.0,AutoTakeoff,2,1,5,5,0,400,805,-3.3703678,-16.39877,1.0,6,1,6,6,0,0,0,0,0,0,0,0,0,0,0,0,0,0,0,0,0,0,65536,16,10,35,0,false,false,false,false,false,false,false,false,false,false,0.09,0.01,-0.08,0.022707507,-0.0823412,0.003114117,0.0016848713,0.0,0.0,0.0016848128,0.0,0.0016847793,1.05304454E-4,0.0,0.3404298,1.053008E-4,0.0,1.05298706E-4,,1000000.0,3014,2925,3112,3063,73,51,52,74,65.989586,66.510414,65.520836,65.9375,66.354164,66.041664,66.197914,66.354164,0.0,0.0,0.0,0.0,1667.4,1669.9,1675.4,1668.0,3.29,2.91,4.04,3.53,0,0,0,0,0.099,26.37,25.42,24.52,25.4,0.3266941,-0.0129530765,-0.01427094,-0.9449337,2.0306187819726316,-0.8689037752534885,141.87155127152374,2396.579,0.34860125,-0.02390737,0,0,65309,16613.0,1570.938,0,4174,12000.0,16795,16613,-1570,5480,91,30,1,319,6022,
1557527499,1.768,-106.21645336705949,39.961194048229345,2396.765,2398.0474,-1.2927244218749365,,14,0.9931528471616434,-1.5887004446993254,-117.87579156072789,-0.026957478,-0.013391388,-1.0037605,1.0042117,-4.9914427,-1.7751926,0.04443366,5.2979035,0.011435502,0.0072500277,-0.0042743203,0.014198712,0.013540074360096785,-392,615,1330,1516.0,65.01,-117.87579156072789,1.8733155278466624,-85.86885276538477,32.00693879534312,242.1242084392721,-125.9369176899078,-8.061126129179911,0.008771999760949,0.0013365258523005963,0.02226630579684219,-0.02226630579684219,-0.0013579377049850146,0.04705109001134007,-0.0039054872095293887,-0.012793439913754336,0.03980106228027909,3.6883311349083115E-4,39.96119410484724,-106.2164536767723,false,false,-576.2205274843282,-561.6466056859973,-68.69392384391323,,227.352159700718,80.9129910612935,80.9129910612935,0.51579505,-0.0074038715,-0.01457621,-0.85655606,0.14425126,-0.047036678,0.045535088,0.0053280876,-0.008600708,0.0017695209,100,4694,0,0,65155,-106.2164535,39.9611939,20180619,200828,2018-06-19T20:08:28Z,2485.673,0.75,1.27,7.3,8,6,14,0.01,0.01,0.01,20180619,200828,16330,0.0,0.0,0.0,0.0,AutoTakeoff,2,1,5,5,0,400,805,-3.3703678,-16.39877,1.0,6,1,6,6,0,0,0,0,0,0,0,0,0,0,0,0,0,0,0,0,0,0,65536,16,10,35,0,false,false,false,false,false,false,false,false,false,false,0.09,0.01,-0.08,0.022707507,-0.0823412,0.003114117,0.0016848713,0.0,0.0,0.0016848128,0.0,0.0016847793,1.05304454E-4,0.0,0.3404298,1.053008E-4,0.0,1.05298706E-4,,1000000.0,2757,2707,2610,2683,74,51,52,73,70.572914,70.677086,69.635414,70.15625,70.520836,69.947914,69.947914,70.677086,0.0,0.0,0.0,0.0,1650.8,1655.2,1657.6,1652.1,2.18,1.74,1.07,1.6,0,0,0,0,0.099,26.37,25.42,24.52,25.4,0.3266941,-0.0129530765,-0.01427094,-0.9449337,2.0306187819726316,-0.8689037752534885,141.87155127152374,2396.579,0.34860125,-0.02390737,0,0,65309,16613.0,1570.938,0,4174,12000.0,16795,16613,-1570,5480,91,30,1,319,6022,
1557718349,1.810,-106.2164533561549,39.96119400634902,2396.194,2398.0476,-1.8635252031249365,,14,1.0387294048784204,-1.29272578173136,-117.85265132387825,-0.02411327,-0.022850037,-1.0092922,1.0098387,6.21675,0.85554415,0.79345894,6.325308,0.018139515,0.014657017,-0.0071592513,0.024395185,0.023321023739299493,-392,618,1341,1527.0,64.99,-117.85265132387825,1.6581214317500377,-79.07180374440924,38.780847579469004,242.14734867612174,-125.43590907796099,-7.583257754082737,0.010312666096961465,0.002477740607210066,0.0216706909688984,-0.0216706909688984,-0.0013579377049850146,0.04705109001134007,-0.0039054872095293887,-0.01949745277709233,0.032394073167782714,0.003253764044522535,39.96119411870278,-106.21645366338228,false,false,-576.1768787212916,-561.5827751244107,-68.7418315567953,,227.35690841404417,168.71364892621452,168.71364892621452,0.51599824,-0.0049835085,-0.013585583,-0.8564674,-0.15958872,0.028212734,0.010861397,0.005329,-0.00859954,0.0017692953,100,4694,0,0,65195,-106.2164535,39.9611939,20180619,200828,2018-06-19T20:08:28Z,2485.673,0.75,1.27,7.3,8,6,14,0.01,0.01,0.01,20180619,200828,16340,0.0,0.0,0.0,0.0,AutoTakeoff,2,1,5,5,0,400,805,-3.374742,-16.39604,1.0,6,1,6,6,0,0,0,0,0,0,0,0,0,0,0,0,0,0,0,0,0,0,65536,16,10,35,0,false,false,false,false,false,false,false,false,false,false,0.09,0.01,-0.08,0.022707507,-0.0823412,0.003114117,0.0016848713,0.0,0.0,0.0016848128,0.0,0.0016847793,1.05304454E-4,0.0,0.3404298,1.053008E-4,0.0,1.05298706E-4,,1000000.0,3244,3163,3054,3197,73,52,51,73,74.21875,74.479164,73.4375,74.479164,73.333336,73.020836,73.59375,73.958336,0.0,0.0,0.0,0.0,1641.1,1646.6,1647.2,1641.1,4.02,3.52,3.82,4.16,0,0,0,0,0.099,34.42,33.85,32.96,34.05,0.3266941,-0.0129530765,-0.01427094,-0.9449337,2.0306187819726316,-0.8689037752534885,141.87155127152374,2396.579,0.34860125,-0.02390737,0,0,65309,16613.0,1570.938,0,4174,12000.0,16795,16613,-1570,5480,91,30,1,319,6022,
1557908403,1.852,-106.2164533561549,39.96119400634902,2396.194,2398.0476,-1.8635252031249365,,14,1.0387294048784204,-1.29272578173136,-117.85265132387825,-0.02411327,-0.022850037,-1.0092922,1.0098387,6.21675,0.85554415,0.79345894,6.325308,0.018139515,0.014657017,-0.0071592513,0.024395185,0.023321023739299493,-392,618,1341,1527.0,64.99,-117.85265132387825,1.6581214317500377,-79.07180374440924,38.780847579469004,242.14734867612174,-125.43590907796099,-7.583257754082737,0.010312666096961465,0.002477740607210066,0.0216706909688984,-0.0216706909688984,-0.0013579377049850146,0.04705109001134007,-0.0039054872095293887,-0.01949745277709233,0.032394073167782714,0.003253764044522535,39.96119411870278,-106.21645366338228,false,false,-576.1768787212916,-561.5827751244107,-68.7418315567953,,227.35690841404417,168.71364892621452,168.71364892621452,0.51599824,-0.0049835085,-0.013585583,-0.8564674,-0.15958872,0.028212734,0.010861397,0.005329,-0.00859954,0.0017692953,100,4694,0,0,65195,-106.2164535,39.9611939,20180619,200828,2018-06-19T20:08:28Z,2485.678,0.75,1.27,7.3,8,6,14,0.0,0.0,0.01,20180619,200828,16340,0.0,0.0,0.0,0.0,AutoTakeoff,2,1,5,5,0,400,805,-3.374742,-16.39604,1.0,6,1,6,6,0,0,0,0,0,0,0,0,0,0,0,0,0,0,0,0,0,0,65536,16,10,35,0,false,false,false,false,false,false,false,false,false,false,0.14,0.03,-0.11,0.022716481,-0.08233139,0.0031075615,0.0016843813,0.0,0.0,0.0016843448,0.0,0.001684373,1.0527383E-4,0.0,0.3405687,1.0527155E-4,0.0,1.0527331E-4,,1000000.0,3244,3163,3054,3197,73,52,51,73,74.21875,74.479164,73.4375,74.479164,73.333336,73.020836,73.59375,73.958336,0.0,0.0,0.0,0.0,1641.1,1646.6,1647.2,1641.1,4.02,3.52,3.82,4.16,0,0,0,0,0.099,34.42,33.85,32.96,34.05,0.3266941,-0.0129530765,-0.01427094,-0.9449337,2.0306187819726316,-0.8689037752534885,141.87155127152374,2396.579,0.34860125,-0.02390737,0,0,65309,16613.0,1570.938,0,4174,12000.0,16795,16613,-1570,5480,91,30,1,319,6022,
1558066525,1.887,-106.21645334571959,39.9611939646804,2396.3184,2398.047,-1.7392576249999365,,14,0.9684771226099416,-1.0433183273745512,-117.87077494261688,-0.008512917,-0.004252786,-1.0095955,1.0096403,4.772986,0.65410095,-3.6188827,6.025409,0.015496739,0.013834633,-0.008457863,0.022429477,0.0207736848193374,-400,612,1324,1512.0,64.99,-117.87077494261688,1.4233926091643052,-75.00170106718245,42.869073875434424,242.1292250573831,-125.73865115166635,-7.86787620904947,0.012064383256753075,0.003961535783721715,0.02085737904612195,-0.02085737904612195,-0.0013579377049850146,0.04705109001134007,-0.0039054872095293887,-0.016854676891331546,0.03321645707820027,0.004552375562518131,39.96119413445635,-106.21645364597268,false,false,-576.3240218357298,-561.01044893359,-68.66321188605944,,227.36162634247327,169.13401094733516,169.13401094733516,0.5158987,-0.0034377372,-0.011936916,-0.8565596,0.029210884,-0.12646455,0.039066315,0.0053334585,-0.008581663,0.0017690639,100,4694,0,0,65235,-106.2164535,39.9611939,20180619,200828,2018-06-19T20:08:28Z,2485.678,0.75,1.27,7.3,8,6,14,0.0,0.0,0.01,20180619,200828,16340,0.0,0.0,0.0,0.0,AutoTakeoff,2,1,5,5,0,400,805,-3.374742,-16.39604,1.0,6,1,6,6,0,0,0,0,0,0,0,0,0,0,0,0,0,0,0,0,0,0,65536,16,10,35,0,false,false,false,false,false,false,false,false,false,false,0.14,0.03,-0.11,0.022716481,-0.08233139,0.0031075615,0.0016843813,0.0,0.0,0.0016843448,0.0,0.001684373,1.0527383E-4,0.0,0.3405687,1.0527155E-4,0.0,1.0527331E-4,,1000000.0,3244,3163,3054,3197,73,52,51,73,74.21875,74.479164,73.4375,74.479164,73.333336,73.020836,73.59375,73.958336,0.0,0.0,0.0,0.0,1641.1,1646.6,1647.2,1641.1,4.02,3.52,3.82,4.16,0,0,0,0,0.099,40.51,41.22,41.34,40.91,0.3266941,-0.0129530765,-0.01427094,-0.9449337,2.0306187819726316,-0.8689037752534885,141.87155127152374,2396.579,0.34860125,-0.02390737,0,0,65309,16590.0,1570.938,0,4174,12000.0,16773,16590,-1570,5480,91,30,1,319,6022,
1558465091,1.976,-106.21645334571959,39.9611939646804,2396.3184,2398.047,-1.7392576249999365,,14,0.9684771226099416,-1.0433183273745512,-117.87077494261688,-0.008512917,-0.004252786,-1.0095955,1.0096403,4.772986,0.65410095,-3.6188827,6.025409,0.015496739,0.013834633,-0.008457863,0.022429477,0.0207736848193374,-400,612,1324,1512.0,64.99,-117.87077494261688,1.4233926091643052,-75.00170106718245,42.869073875434424,242.1292250573831,-125.73865115166635,-7.86787620904947,0.012064383256753075,0.003961535783721715,0.02085737904612195,-0.02085737904612195,-0.0013579377049850146,0.04705109001134007,-0.0039054872095293887,-0.016854676891331546,0.03321645707820027,0.004552375562518131,39.96119413445635,-106.21645364597268,false,false,-576.3240218357298,-561.01044893359,-68.66321188605944,,227.36162634247327,169.13401094733516,169.13401094733516,0.5158987,-0.0034377372,-0.011936916,-0.8565596,0.029210884,-0.12646455,0.039066315,0.0053334585,-0.008581663,0.0017690639,100,4694,0,0,65235,-106.2164535,39.9611939,20180619,200828,2018-06-19T20:08:28Z,2485.678,0.75,1.27,7.3,8,6,14,0.0,0.0,0.01,20180619,200828,16340,0.0,0.0,0.0,0.0,AutoTakeoff,2,1,5,5,0,400,805,-3.374742,-16.39604,1.0,6,1,6,6,0,0,0,0,0,0,0,0,0,0,0,0,0,0,0,0,0,0,65536,16,10,35,0,false,false,false,false,false,false,false,false,false,false,0.14,0.03,-0.11,0.022716481,-0.08233139,0.0031075615,0.0016843813,0.0,0.0,0.0016843448,0.0,0.001684373,1.0527383E-4,0.0,0.3405687,1.0527155E-4,0.0,1.0527331E-4,,1000000.0,3771,3722,3658,3746,73,52,52,73,76.770836,76.614586,76.302086,76.354164,75.9375,75.989586,76.770836,76.197914,0.0,0.0,0.0,0.0,1636.7,1641.7,1641.7,1636.7,4.27,4.23,4.5,4.28,0,0,0,0,0.099,40.51,41.22,41.34,40.91,0.32686457,-0.0052523008,-0.008053075,-0.94502234,1.0688718340098027,-0.26719204287599785,141.84350307135904,2396.3718,0.20383102,-0.27456832,0,0,65409,16590.0,1570.938,0,4174,12000.0,16773,16590,-1570,5480,91,30,1,319,6022,
1558656074,2.018,-106.21645336902588,39.961193896090336,2396.1755,2398.0479,-1.8820798906249365,,14,0.6813267930082539,-0.8557490053159299,-117.89318747603413,-0.02480289,-0.01115108,-1.0162531,1.016617,-7.8237667,-1.1492265,-1.0489817,7.9769926,0.0045872657,0.009216948,-0.012710306,0.016356865,0.01029539442864009,-386,604,1347,1525.0,64.97,-117.89318747603413,1.0937890628269549,-79.36798685285432,38.52520062317981,242.10681252396586,-124.6387893200183,-6.745601843984176,0.013110629481044356,0.0051623734716113034,0.01975465492934525,-0.01975465492934525,-0.05412939116427133,-5.362463656014782E-4,-0.001562347427009081,-0.05871665682712028,-0.00975319477796024,0.011147958435119653,39.96119414386547,-106.21645363188308,false,false,-576.5671872531732,-561.1693747996725,-68.68900471397465,,227.36950763310352,-165.40200743693032,-165.40200743693032,0.5157753,-0.003330503,-0.008945501,-0.85667074,0.1492504,0.06830456,-0.06238365,0.0053339386,-0.008580903,0.0017686425,100,4695,0,0,65275,-106.2164535,39.9611939,20180619,200828,2018-06-19T20:08:28Z,2485.678,0.75,1.27,7.3,8,6,14,0.0,0.0,0.01,20180619,200828,16350,0.0,0.0,0.0,0.0,AutoTakeoff,2,1,5,5,0,400,805,-3.387016,-16.397137,1.0,6,1,6,6,0,0,0,0,0,0,0,0,0,0,0,0,0,0,0,0,0,0,65536,16,10,35,0,false,false,false,false,false,false,false,false,false,false,0.14,0.03,-0.11,0.022716481,-0.08233139,0.0031075615,0.0016843813,0.0,0.0,0.0016843448,0.0,0.001684373,1.0527383E-4,0.0,0.3405687,1.0527155E-4,0.0,1.0527331E-4,,1000000.0,4214,4174,4162,4244,74,51,51,73,78.229164,78.59375,78.90625,78.4375,78.4375,77.916664,78.75,79.322914,0.0,0.0,0.0,0.0,1633.1,1638.0,1638.0,1633.1,4.74,4.4,4.63,4.86,0,0,0,0,0.099,46.03,44.31,47.62,48.95,0.32686457,-0.0052523008,-0.008053075,-0.94502234,1.0688718340098027,-0.26719204287599785,141.84350307135904,2396.3718,0.20383102,-0.27456832,0,0,65409,16590.0,1570.938,0,4174,12000.0,16773,16590,-1570,5480,91,30,1,319,6022,
1558845517,2.061,-106.21645336902588,39.961193896090336,2396.1755,2398.0479,-1.8820798906249365,,14,0.6813267930082539,-0.8557490053159299,-117.89318747603413,-0.02480289,-0.01115108,-1.0162531,1.016617,-7.8237667,-1.1492265,-1.0489817,7.9769926,0.0045872657,0.009216948,-0.012710306,0.016356865,0.01029539442864009,-386,604,1347,1525.0,64.97,-117.89318747603413,1.0937890628269549,-79.36798685285432,38.52520062317981,242.10681252396586,-124.6387893200183,-6.745601843984176,0.013110629481044356,0.0051623734716113034,0.01975465492934525,-0.01975465492934525,-0.05412939116427133,-5.362463656014782E-4,-0.001562347427009081,-0.05871665682712028,-0.00975319477796024,0.011147958435119653,39.96119414386547,-106.21645363188308,false,false,-576.5671872531732,-561.1693747996725,-68.68900471397465,,227.36950763310352,-165.40200743693032,-165.40200743693032,0.5157753,-0.003330503,-0.008945501,-0.85667074,0.1492504,0.06830456,-0.06238365,0.0053339386,-0.008580903,0.0017686425,100,4695,0,0,65275,-106.2164534,39.9611939,20180619,200829,2018-06-19T20:08:29Z,2485.679,0.75,1.27,7.3,8,6,14,0.0,0.02,0.01,20180619,200829,16350,0.0,0.0,0.0,0.0,AutoTakeoff,2,1,5,5,0,400,805,-3.387016,-16.397137,1.0,6,1,6,6,0,0,0,0,0,0,0,0,0,0,0,0,0,0,0,0,0,0,65536,16,10,35,0,false,false,false,false,false,false,false,false,false,false,0.07,0.11,-0.13,0.022712795,-0.082316205,0.0030966508,0.0016838863,0.0,0.0,0.0016839643,0.0,0.0016840162,1.0524289E-4,0.0,0.34053832,1.0524777E-4,0.0,1.0525101E-4,,1000000.0,4214,4174,4162,4244,74,51,51,73,78.229164,78.59375,78.90625,78.4375,78.4375,77.916664,78.75,79.322914,0.0,0.0,0.0,0.0,1633.1,1638.0,1638.0,1633.1,4.74,4.4,4.63,4.86,0,0,0,0,0.099,46.03,44.31,47.62,48.95,0.32686457,-0.0052523008,-0.008053075,-0.94502234,1.0688718340098027,-0.26719204287599785,141.84350307135904,2396.3718,0.20383102,-0.27456832,0,0,65409,16590.0,1570.938,0,4174,12000.0,16773,16590,-1570,5480,91,30,1,319,6022,
1559003888,2.096,-106.21645338370683,39.96119383718626,2395.634,2398.0496,-2.4235837968749365,,14,0.41437546616311643,-0.21023190882817325,-117.89721743735676,-0.019210653,-0.0075720707,-1.0157217,1.0159315,-4.0286694,4.622381,1.879447,6.4131823,0.008914564,0.01907104,-0.022489293,0.030804908,0.02105169917328198,-420,601,1344,1530.0,65.0,-117.89721743735676,0.4646519129603658,-54.7977138695636,63.09950356779316,242.10278256264326,-125.7049818596982,-7.807764422341435,0.013813575070397377,0.006635130715968884,0.017922058649860517,-0.017922058649860517,-0.05412939116427133,-5.362463656014782E-4,-0.001562347427009081,-0.06304395496913621,-0.019607287040645537,0.020926945120097663,39.961194150187204,-106.21645361460301,false,false,-576.5239507471181,-561.7864480396639,-68.50818190340179,,227.37617591083452,-169.1848893855579,-169.1848893855579,0.5157968,2.9348908E-4,-0.0040442282,-0.8567014,0.041942634,0.1187075,-0.059737206,0.005340302,-0.00858769,0.0017686842,100,4695,0,0,65315,-106.2164534,39.9611939,20180619,200829,2018-06-19T20:08:29Z,2485.679,0.75,1.27,7.3,8,6,14,0.0,0.02,0.01,20180619,200829,16350,0.0,0.0,0.0,0.0,AutoTakeoff,2,1,5,5,0,400,805,-3.387016,-16.397137,1.0,6,1,6,6,0,0,0,0,0,0,0,0,0,0,0,0,0,0,0,0,0,0,65536,16,10,35,0,false,false,false,false,false,false,false,false,false,false,0.07,0.11,-0.13,0.022712795,-0.082316205,0.0030966508,0.0016838863,0.0,0.0,0.0016839643,0.0,0.0016840162,1.0524289E-4,0.0,0.34053832,1.0524777E-4,0.0,1.0525101E-4,,1000000.0,4214,4174,4162,4244,74,51,51,73,78.229164,78.59375,78.90625,78.4375,78.4375,77.916664,78.75,79.322914,0.0,0.0,0.0,0.0,1633.1,1638.0,1638.0,1633.1,4.74,4.4,4.63,4.86,0,0,0,0,0.095,50.52,51.16,54.1,53.31,0.32686457,-0.0052523008,-0.008053075,-0.94502234,1.0688718340098027,-0.26719204287599785,141.84350307135904,2396.3718,0.20383102,-0.27456832,0,0,65409,16546.0,1570.938,0,4174,12000.0,16650,16546,-1570,5480,91,30,1,319,6022,
1559402605,2.184,-106.21645338370683,39.96119383718626,2395.634,2398.0496,-2.4235837968749365,,14,0.41437546616311643,-0.21023190882817325,-117.89721743735676,-0.019210653,-0.0075720707,-1.0157217,1.0159315,-4.0286694,4.622381,1.879447,6.4131823,0.008914564,0.01907104,-0.022489293,0.030804908,0.02105169917328198,-420,601,1344,1530.0,65.0,-117.89721743735676,0.4646519129603658,-54.7977138695636,63.09950356779316,242.10278256264326,-125.7049818596982,-7.807764422341435,0.013813575070397377,0.006635130715968884,0.017922058649860517,-0.017922058649860517,-0.05412939116427133,-5.362463656014782E-4,-0.001562347427009081,-0.06304395496913621,-0.019607287040645537,0.020926945120097663,39.961194150187204,-106.21645361460301,false,false,-576.5239507471181,-561.7864480396639,-68.50818190340179,,227.37617591083452,-169.1848893855579,-169.1848893855579,0.5157968,2.9348908E-4,-0.0040442282,-0.8567014,0.041942634,0.1187075,-0.059737206,0.005340302,-0.00858769,0.0017686842,100,4695,0,0,65315,-106.2164534,39.9611939,20180619,200829,2018-06-19T20:08:29Z,2485.679,0.75,1.27,7.3,8,6,14,0.0,0.02,0.01,20180619,200829,16350,0.0,0.0,0.0,0.0,AutoTakeoff,2,1,5,5,0,400,805,-3.387016,-16.397137,1.0,6,1,6,6,0,0,0,0,0,0,0,0,0,0,0,0,0,0,0,0,0,0,65536,16,10,35,0,false,false,false,false,false,false,false,false,false,false,0.07,0.11,-0.13,0.022712795,-0.082316205,0.0030966508,0.0016838863,0.0,0.0,0.0016839643,0.0,0.0016840162,1.0524289E-4,0.0,0.34053832,1.0524777E-4,0.0,1.0525101E-4,,1000000.0,4580,4549,4649,4686,73,52,51,73,80.677086,80.729164,81.458336,81.5625,79.6875,80.416664,82.083336,81.25,0.0,0.0,0.0,0.0,1625.7,1631.8,1632.5,1627.0,5.1,4.36,5.32,5.28,0,0,0,0,0.095,50.52,51.16,54.1,53.31,0.32686457,-0.0052523008,-0.008053075,-0.94502234,1.0688718340098027,-0.26719204287599785,141.84350307135904,2396.3718,0.20383102,-0.27456832,0,0,65409,16546.0,1570.938,0,4174,12000.0,16650,16546,-1570,5480,91,30,1,319,6022,
1559593564,2.227,-106.21645335468011,39.961193841990166,2395.346,2398.051,-2.7116697343749365,,14,-0.041873784405309124,1.224614068219079,-117.92563869174644,-0.020857496,0.0065659164,-1.0458443,1.0460728,-6.341171,21.381762,0.26716,22.303846,0.007965695,0.055614337,-0.03043029,0.063893735,0.05618190816374292,-439,586,1339,1526.0,64.97,-117.92563869174644,1.2253293280273485,64.03244124553872,-178.04192006271487,242.07436130825357,-124.95315287659525,-7.027514184848812,0.014692926937240003,0.010525753892428824,0.015165292022190968,-0.015165292022190968,-0.05412939116427133,-5.362463656014782E-4,-0.001562347427009081,-0.06209508627721498,-0.05615058369069761,0.02886794342100766,39.96119415809541,-106.21645356895377,false,false,-576.4121264637363,-562.326649368024,-67.15353494010161,,227.37870683260687,77.81565185464864,77.81565185464864,0.51556146,0.008968207,0.0058230176,-0.85678595,0.31900293,0.45950764,-0.17995167,0.005341308,-0.008586372,0.0017683693,100,4695,0,0,65355,-106.2164534,39.9611939,20180619,200829,2018-06-19T20:08:29Z,2485.679,0.75,1.27,7.3,8,6,14,0.0,0.02,0.01,20180619,200829,16360,0.0,0.0,0.0,0.0,AutoTakeoff,2,1,5,5,0,400,805,-3.3930385,-16.395914,1.0,6,1,6,6,0,0,0,0,0,0,0,0,0,0,0,0,0,0,0,0,0,0,65536,16,10,35,0,false,false,false,false,false,false,false,false,false,false,0.07,0.11,-0.13,0.022712795,-0.082316205,0.0030966508,0.0016838863,0.0,0.0,0.0016839643,0.0,0.0016840162,1.0524289E-4,0.0,0.34053832,1.0524777E-4,0.0,1.0525101E-4,,1000000.0,4846,4837,5154,5154,73,52,52,74,81.71875,82.34375,85.260414,84.270836,80.833336,81.302086,85.3125,84.583336,0.0,0.0,0.0,0.0,1621.4,1626.4,1627.0,1621.4,4.46,4.6,6.32,6.36,0,0,0,0,0.095,54.51,54.39,60.81,60.46,0.32686457,-0.0052523008,-0.008053075,-0.94502234,1.0688718340098027,-0.26719204287599785,141.84350307135904,2396.3718,0.20383102,-0.27456832,0,0,65409,16546.0,1570.938,0,4174,12000.0,16650,16546,-1570,5480,91,30,1,319,6022,
1559783034,2.269,-106.21645335468011,39.961193841990166,2395.346,2398.051,-2.7116697343749365,,14,-0.041873784405309124,1.224614068219079,-117.92563869174644,-0.020857496,0.0065659164,-1.0458443,1.0460728,-6.341171,21.381762,0.26716,22.303846,0.007965695,0.055614337,-0.03043029,0.063893735,0.05618190816374292,-439,586,1339,1526.0,64.97,-117.92563869174644,1.2253293280273485,64.03244124553872,-178.04192006271487,242.07436130825357,-124.95315287659525,-7.027514184848812,0.014692926937240003,0.010525753892428824,0.015165292022190968,-0.015165292022190968,-0.05412939116427133,-5.362463656014782E-4,-0.001562347427009081,-0.06209508627721498,-0.05615058369069761,0.02886794342100766,39.96119415809541,-106.21645356895377,false,false,-576.4121264637363,-562.326649368024,-67.15353494010161,,227.37870683260687,77.81565185464864,77.81565185464864,0.51556146,0.008968207,0.0058230176,-0.85678595,0.31900293,0.45950764,-0.17995167,0.005341308,-0.008586372,0.0017683693,100,4695,0,0,65355,-106.2164534,39.9611939,20180619,200829,2018-06-19T20:08:29Z,2485.682,0.75,1.27,7.3,8,6,14,0.01,0.02,0.0,20180619,200829,16360,0.0,0.0,0.0,0.0,AutoTakeoff,2,1,5,5,0,400,805,-3.3930385,-16.395914,1.0,6,1,6,6,0,0,0,0,0,0,0,0,0,0,0,0,0,0,0,0,0,0,65536,16,10,35,0,false,false,false,false,false,false,false,false,false,false,0.46,0.56,-0.5,0.022746222,-0.08226456,0.003051623,0.00167368,0.0,0.0,0.0016736763,0.0,0.0016736438,1.04605E-4,0.0,0.33979917,1.0460477E-4,0.0,1.0460274E-4,,1000000.0,4846,4837,5154,5154,73,52,52,74,81.71875,82.34375,85.260414,84.270836,80.833336,81.302086,85.3125,84.583336,0.0,0.0,0.0,0.0,1621.4,1626.4,1627.0,1621.4,4.46,4.6,6.32,6.36,0,0,0,0,0.095,54.51,54.39,60.81,60.46,0.32686457,-0.0052523008,-0.008053075,-0.94502234,1.0688718340098027,-0.26719204287599785,141.84350307135904,2396.3718,0.20383102,-0.27456832,0,0,65409,16546.0,1570.938,0,4174,12000.0,16650,16546,-1570,5480,91,30,1,319,6022,
1559941505,2.304,-106.2164532630414,39.96119386399696,2393.9402,2398.0547,-4.1174314531249365,,14,-1.0739616575257838,5.189146277474536,-117.86485625083061,-0.024152031,0.0034309567,-1.0948061,1.0950778,-18.827085,53.560596,3.8326163,56.902424,0.036093075,0.14798181,-0.0702136,0.1677238,0.15231981456233218,-507,575,1333,1537.0,65.0,-117.86485625083061,5.297930773105187,73.79838547088717,-168.33675827828225,242.1351437491694,-122.71608665401709,-4.851230403186477,0.016987430443858642,0.02112868422985592,0.009923934556768543,-0.009923934556768543,-0.011420700583028099,0.028908146477832065,-0.021877136439105382,-0.047513775411414404,-0.11907366111169888,0.04833646455405105,39.96119417873037,-106.21645344454805,false,false,-576.198617299214,-563.637368037049,-63.250668303262145,,227.3868914467583,72.60359362587268,72.60359362587268,0.51513356,0.033941917,0.03137905,-0.85586256,0.36316472,1.2707813,-0.49698353,0.0053249607,-0.00859248,0.0017690918,100,4696,0,0,65395,-106.2164534,39.9611939,20180619,200829,2018-06-19T20:08:29Z,2485.682,0.75,1.27,7.3,8,6,14,0.01,0.02,0.0,20180619,200829,16360,0.0,0.0,0.0,0.0,AutoTakeoff,2,1,5,5,0,400,805,-3.3930385,-16.395914,1.0,6,1,6,6,0,0,0,0,0,0,0,0,0,0,0,0,0,0,0,0,0,0,65536,16,10,35,0,false,false,false,false,false,false,false,false,false,false,0.46,0.56,-0.5,0.022746222,-0.08226456,0.003051623,0.00167368,0.0,0.0,0.0016736763,0.0,0.0016736438,1.04605E-4,0.0,0.33979917,1.0460477E-4,0.0,1.0460274E-4,,1000000.0,4846,4837,5154,5154,73,52,52,74,81.71875,82.34375,85.260414,84.270836,80.833336,81.302086,85.3125,84.583336,0.0,0.0,0.0,0.0,1621.4,1626.4,1627.0,1621.4,4.46,4.6,6.32,6.36,0,0,0,0,0.103,53.87,56.58,70.57,68.35,0.32686457,-0.0052523008,-0.008053075,-0.94502234,1.0688718340098027,-0.26719204287599785,141.84350307135904,2396.3718,0.20383102,-0.27456832,0,0,65409,16522.0,1620.9817,0,4170,12000.0,16549,16522,-4040,5480,91,30,1,320,6022,
1560349046,2.395,-106.2164532630414,39.96119386399696,2393.9402,2398.0547,-4.1174314531249365,,14,-1.0739616575257838,5.189146277474536,-117.86485625083061,-0.024152031,0.0034309567,-1.0948061,1.0950778,-18.827085,53.560596,3.8326163,56.902424,0.036093075,0.14798181,-0.0702136,0.1677238,0.15231981456233218,-507,575,1333,1537.0,65.0,-117.86485625083061,5.297930773105187,73.79838547088717,-168.33675827828225,242.1351437491694,-122.71608665401709,-4.851230403186477,0.016987430443858642,0.02112868422985592,0.009923934556768543,-0.009923934556768543,-0.011420700583028099,0.028908146477832065,-0.021877136439105382,-0.047513775411414404,-0.11907366111169888,0.04833646455405105,39.96119417873037,-106.21645344454805,false,false,-576.198617299214,-563.637368037049,-63.250668303262145,,227.3868914467583,72.60359362587268,72.60359362587268,0.51513356,0.033941917,0.03137905,-0.85586256,0.36316472,1.2707813,-0.49698353,0.0053249607,-0.00859248,0.0017690918,100,4696,0,0,65395,-106.2164534,39.9611939,20180619,200829,2018-06-19T20:08:29Z,2485.682,0.75,1.27,7.3,8,6,14,0.01,0.02,0.0,20180619,200829,16360,0.0,0.0,0.0,0.0,AutoTakeoff,2,1,5,5,0,400,805,-3.3930385,-16.395914,1.0,6,1,6,6,0,0,0,0,0,0,0,0,0,0,0,0,0,0,0,0,0,0,65536,16,10,35,0,false,false,false,false,false,false,false,false,false,false,0.46,0.56,-0.5,0.022746222,-0.08226456,0.003051623,0.00167368,0.0,0.0,0.0016736763,0.0,0.0016736438,1.04605E-4,0.0,0.33979917,1.0460477E-4,0.0,1.0460274E-4,,1000000.0,4866,5030,5788,5682,73,53,52,74,80.833336,83.333336,88.802086,87.34375,79.791664,82.864586,88.802086,87.760414,0.0,0.0,0.0,0.0,1615.3,1617.1,1619.6,1614.7,3.54,4.92,7.66,7.43,0,0,0,0,0.103,53.87,56.58,70.57,68.35,0.32686457,-0.0052523008,-0.008053075,-0.94502234,1.0688718340098027,-0.26719204287599785,141.84350307135904,2396.3718,0.20383102,-0.27456832,0,0,65409,16522.0,1620.9817,0,4170,12000.0,16549,16522,-4040,5480,91,30,1,320,6022,
1560530449,2.435,-106.21645292012808,39.96119394111681,2394.1094,2398.0657,-3.9482419999999365,,14,-3.4736480897578663,10.944779893892953,-116.40231303831484,-0.067612514,-0.052762847,-1.087152,1.0905296,-24.952522,27.850025,14.397274,40.06911,0.065751664,0.34296972,-0.16195518,0.38494283,0.3492155574166212,-617,527,1301,1533.0,64.99,-116.40231303831484,11.457689035654884,81.02446501532495,-162.57322194636023,243.59768696168516,-121.12831286296264,-4.7259998246478006,0.022294433987891438,0.046711561605283336,-0.002174093695243684,0.002174093695243684,-0.011420700583028099,0.028908146477832065,-0.021877136439105382,-0.07717236492352417,-0.3140615691174133,0.14007804134486068,39.9611942264574,-106.21645314438045,false,false,-575.24868023358,-565.9186693148841,-59.008461380180606,,227.41734957681834,73.64756005967921,73.64756005967921,0.52183944,0.065116696,0.075871006,-0.8471641,0.016502857,2.569523,-0.8809471,0.005323555,-0.008593022,0.0017689571,100,4696,0,0,65435,-106.2164534,39.9611939,20180619,200829,2018-06-19T20:08:29Z,2485.682,0.75,1.27,7.3,8,6,14,0.01,0.02,0.0,20180619,200829,16370,0.0,0.0,0.0,0.0,AutoTakeoff,2,1,5,5,0,400,805,-3.3820038,-16.358835,1.0,6,1,6,6,0,0,0,0,0,0,0,0,0,0,0,0,0,0,0,0,0,0,65536,16,10,35,0,false,false,false,false,false,false,false,false,false,false,0.46,0.56,-0.5,0.022746222,-0.08226456,0.003051623,0.00167368,0.0,0.0,0.0016736763,0.0,0.0016736438,1.04605E-4,0.0,0.33979917,1.0460477E-4,0.0,1.0460274E-4,,1000000.0,4427,5435,6270,6236,74,52,53,75,73.541664,88.385414,93.854164,91.09375,75.729164,87.447914,91.770836,89.635414,0.0,0.0,0.0,0.0,1595.7,1598.7,1597.5,1600.0,6.32,7.1,9.1,10.5,0,0,0,0,0.103,55.69,64.48,73.4,72.62,0.32686457,-0.0052523008,-0.008053075,-0.94502234,1.0688718340098027,-0.26719204287599785,141.84350307135904,2396.3718,0.20383102,-0.27456832,0,0,65409,16522.0,1620.9817,0,4170,12000.0,16549,16522,-4040,5480,91,30,1,320,6022,
1560720666,2.477,-106.21645292012808,39.96119394111681,2394.1094,2398.0657,-3.9482419999999365,,14,-3.4736480897578663,10.944779893892953,-116.40231303831484,-0.067612514,-0.052762847,-1.087152,1.0905296,-24.952522,27.850025,14.397274,40.06911,0.065751664,0.34296972,-0.16195518,0.38494283,0.3492155574166212,-617,527,1301,1533.0,64.99,-116.40231303831484,11.457689035654884,81.02446501532495,-162.57322194636023,243.59768696168516,-121.12831286296264,-4.7259998246478006,0.022294433987891438,0.046711561605283336,-0.002174093695243684,0.002174093695243684,-0.011420700583028099,0.028908146477832065,-0.021877136439105382,-0.07717236492352417,-0.3140615691174133,0.14007804134486068,39.9611942264574,-106.21645314438045,false,false,-575.24868023358,-565.9186693148841,-59.008461380180606,,227.41734957681834,73.64756005967921,73.64756005967921,0.52183944,0.065116696,0.075871006,-0.8471641,0.016502857,2.569523,-0.8809471,0.005323555,-0.008593022,0.0017689571,100,4696,0,0,65435,-106.2164531,39.961194,20180619,200829,2018-06-19T20:08:29Z,2485.69,0.75,1.27,7.3,8,6,14,0.04,0.11,-0.01,20180619,200829,16370,0.0,0.0,0.0,0.0,AutoTakeoff,2,1,5,5,0,400,805,-3.3820038,-16.358835,1.0,6,1,6,6,0,0,0,0,0,0,0,0,0,0,0,0,0,0,0,0,0,0,65536,16,10,35,0,false,false,false,false,false,false,false,false,false,false,2.4,3.81,-2.18,0.023006395,-0.081909694,0.0027540324,0.0023215997,0.0,0.0,0.002321475,0.0,0.002321404,1.4509998E-4,0.0,0.3511442,1.4509218E-4,0.0,1.4508775E-4,,1000000.0,4427,5435,6270,6236,74,52,53,75,73.541664,88.385414,93.854164,91.09375,75.729164,87.447914,91.770836,89.635414,0.0,0.0,0.0,0.0,1595.7,1598.7,1597.5,1600.0,6.32,7.1,9.1,10.5,0,0,0,0,0.103,55.69,64.48,73.4,72.62,0.32686457,-0.0052523008,-0.008053075,-0.94502234,1.0688718340098027,-0.26719204287599785,141.84350307135904,2396.3718,0.20383102,-0.27456832,0,0,65409,16522.0,1620.9817,0,4170,12000.0,16549,16522,-4040,5480,91,30,1,320,6022,
1560878932,2.512,-106.21645236743566,39.96119399071922,2394.8018,2398.0852,-3.2558591874999365,,14,-3.5224506079409226,7.856729678071855,-115.93327082713067,-0.074460104,-0.048683237,-1.1211275,1.1246517,29.994339,-85.934555,0.3733635,91.01949,0.061305035,0.5977338,-0.28247634,0.66395545,0.6008693615573653,-650,495,1310,1543.0,64.96,-115.93327082713067,8.592330866059674,88.10761479011711,-155.95911438275226,244.06672917286932,-129.24366015624233,-13.310389329111658,0.028909385431798995,0.09568739748700317,-0.025312526376906064,0.025312526376906064,-0.011420700583028099,0.028908146477832065,-0.021877136439105382,-0.07272573548870018,-0.5688256491650208,0.2605991993248259,39.96119428594709,-106.21645256973991,false,false,-574.4796767058754,-565.656177270521,-62.03251557847362,,227.46477660975887,83.32166403322988,83.32166403322988,0.5271318,0.041786917,0.062314495,-0.8464649,-0.16887307,2.0538046,-1.3547812,0.0053289505,-0.008638667,0.0017685484,100,4696,0,0,65475,-106.2164531,39.961194,20180619,200829,2018-06-19T20:08:29Z,2485.69,0.75,1.27,7.3,8,6,14,0.04,0.11,-0.01,20180619,200829,16370,0.0,0.0,0.0,0.0,AutoTakeoff,2,1,5,5,0,400,805,-3.3820038,-16.358835,1.0,6,1,6,6,0,0,0,0,0,0,0,0,0,0,0,0,0,0,0,0,0,0,65536,15,10,0,0,false,false,false,false,false,false,false,false,false,false,2.4,3.81,-2.18,0.023006395,-0.081909694,0.0027540324,0.0023215997,0.0,0.0,0.002321475,0.0,0.002321404,1.4509998E-4,0.0,0.3511442,1.4509218E-4,0.0,1.4508775E-4,,1000000.0,4427,5435,6270,6236,74,52,53,75,73.541664,88.385414,93.854164,91.09375,75.729164,87.447914,91.770836,89.635414,0.0,0.0,0.0,0.0,1595.7,1598.7,1597.5,1600.0,6.32,7.1,9.1,10.5,0,0,0,0,0.123,52.44,72.17,72.5,71.16,0.33936465,0.059313763,0.05643971,-0.9370849,-8.3972518658965,4.223446403562961,140.49454827330794,2395.9285,0.47162828,-1.3069348,0,0,65509,16512.0,1620.9817,0,4170,12000.0,16425,16512,-4040,5480,91,30,1,320,6022,
1561277500,2.601,-106.21645236743566,39.96119399071922,2394.8018,2398.0852,-3.2558591874999365,,14,-3.5224506079409226,7.856729678071855,-115.93327082713067,-0.074460104,-0.048683237,-1.1211275,1.1246517,29.994339,-85.934555,0.3733635,91.01949,0.061305035,0.5977338,-0.28247634,0.66395545,0.6008693615573653,-650,495,1310,1543.0,64.96,-115.93327082713067,8.592330866059674,88.10761479011711,-155.95911438275226,244.06672917286932,-129.24366015624233,-13.310389329111658,0.028909385431798995,0.09568739748700317,-0.025312526376906064,0.025312526376906064,-0.011420700583028099,0.028908146477832065,-0.021877136439105382,-0.07272573548870018,-0.5688256491650208,0.2605991993248259,39.96119428594709,-106.21645256973991,false,false,-574.4796767058754,-565.656177270521,-62.03251557847362,,227.46477660975887,83.32166403322988,83.32166403322988,0.5271318,0.041786917,0.062314495,-0.8464649,-0.16887307,2.0538046,-1.3547812,0.0053289505,-0.008638667,0.0017685484,100,4696,0,0,65475,-106.2164531,39.961194,20180619,200829,2018-06-19T20:08:29Z,2485.69,0.75,1.27,7.3,8,6,14,0.04,0.11,-0.01,20180619,200829,16370,0.0,0.0,0.0,0.0,AutoTakeoff,2,1,5,5,0,400,805,-3.3820038,-16.358835,1.0,6,1,6,6,0,0,0,0,0,0,0,0,0,0,0,0,0,0,0,0,0,0,65536,15,10,0,0,false,false,false,false,false,false,false,false,false,false,2.4,3.81,-2.18,0.023006395,-0.081909694,0.0027540324,0.0023215997,0.0,0.0,0.002321475,0.0,0.002321404,1.4509998E-4,0.0,0.3511442,1.4509218E-4,0.0,1.4508775E-4,,1000000.0,4613,5973,6399,6261,72,51,54,73,82.760414,88.541664,88.489586,89.322914,83.020836,88.645836,86.25,86.875,0.0,0.0,0.0,0.0,1615.3,1621.4,1620.8,1615.9,6.48,6.64,3.62,4.95,0,0,0,0,0.123,52.44,72.17,72.5,71.16,0.33936465,0.059313763,0.05643971,-0.9370849,-8.3972518658965,4.223446403562961,140.49454827330794,2395.9285,0.47162828,-1.3069348,0,0,65509,16512.0,1620.9817,0,4170,12000.0,16425,16512,-4040,5480,91,30,1,320,6022,
1561468197,2.643,-106.2164515724962,39.961194030902696,2395.174,2398.1162,-2.8835447343749365,,14,0.11617152709058162,-1.5989026549760115,-116.48866032767776,-0.012682288,-0.047766525,-1.1049703,1.106075,31.79111,-69.44538,-8.546091,76.85292,0.043391448,0.76057214,-0.35887736,0.8421079,0.7618088888974223,-462,567,1350,1535.0,64.98,-116.48866032767776,1.603113070220069,-112.33409051417621,4.15456981350155,243.51133967232224,-131.51730977054729,-15.028649442869522,0.0343617947106587,0.1664255893634472,-0.05871310264710239,0.05871310264710239,0.05938902850175509,0.46106520880105817,-0.196875,0.015997580987459514,-0.29950692664739764,0.16200236082077027,39.96119433498177,-106.21645173975848,false,false,-574.905298032277,-562.4384994403555,-70.12443028661765,,227.53267540198806,86.22682369718305,86.22682369718305,0.5262345,-0.011330394,-0.008205165,-0.8502244,-0.41527185,0.4437816,-0.34194565,0.0053277183,-0.00863587,0.0017683257,100,4696,0,0,65515,-106.2164531,39.961194,20180619,200829,2018-06-19T20:08:29Z,2485.69,0.75,1.27,7.3,8,6,14,0.04,0.11,-0.01,20180619,200829,16380,0.0,0.0,0.0,0.0,AutoTakeoff,2,1,5,5,0,400,805,0.009994919,0.11498551,1.0,6,1,6,6,0,0,0,0,0,0,0,0,0,0,0,0,0,0,0,0,0,0,65536,15,10,0,0,false,false,false,false,false,false,false,false,false,false,2.4,3.81,-2.18,0.023006395,-0.081909694,0.0027540324,0.0023215997,0.0,0.0,0.002321475,0.0,0.002321404,1.4509998E-4,0.0,0.3511442,1.4509218E-4,0.0,1.4508775E-4,,1000000.0,5453,6013,5846,5806,73,51,51,74,85.46875,86.927086,89.0625,86.510414,84.84375,85.15625,88.28125,87.395836,0.0,0.0,0.0,0.0,1614.7,1619.6,1619.6,1615.3,6.08,3.93,6.76,4.26,0,0,0,0,0.123,62.23,68.92,71.38,66.82,0.33936465,0.059313763,0.05643971,-0.9370849,-8.3972518658965,4.223446403562961,140.49454827330794,2395.9285,0.47162828,-1.3069348,0,0,65509,16512.0,1620.9817,0,4170,12000.0,16425,16512,-4040,5480,91,30,1,320,6022,
1561634142,2.680,-106.2164515724962,39.961194030902696,2395.174,2398.1162,-2.8835447343749365,,14,0.11617152709058162,-1.5989026549760115,-116.48866032767776,-0.012682288,-0.047766525,-1.1049703,1.106075,31.79111,-69.44538,-8.546091,76.85292,0.043391448,0.76057214,-0.35887736,0.8421079,0.7618088888974223,-462,567,1350,1535.0,64.98,-116.48866032767776,1.603113070220069,-112.33409051417621,4.15456981350155,243.51133967232224,-131.51730977054729,-15.028649442869522,0.0343617947106587,0.1664255893634472,-0.05871310264710239,0.05871310264710239,0.05938902850175509,0.46106520880105817,-0.196875,0.015997580987459514,-0.29950692664739764,0.16200236082077027,39.96119433498177,-106.21645173975848,false,false,-574.905298032277,-562.4384994403555,-70.12443028661765,,227.53267540198806,86.22682369718305,86.22682369718305,0.5262345,-0.011330394,-0.008205165,-0.8502244,-0.41527185,0.4437816,-0.34194565,0.0053277183,-0.00863587,0.0017683257,100,4696,0,0,65515,-106.216452,39.9611941,20180619,200829,2018-06-19T20:08:29Z,2485.746,0.75,1.27,7.3,8,6,14,0.03,0.4,-0.1,20180619,200829,16380,0.0,0.0,0.0,0.0,AutoTakeoff,2,1,5,5,0,400,805,0.009994919,0.11498551,1.0,6,1,6,6,0,0,0,0,0,0,0,0,0,0,0,0,0,0,0,0,0,0,65536,15,10,0,0,false,false,false,false,false,false,false,false,false,false,3.24,7.18,-3.38,0.02369425,-0.08063021,0.0022722676,0.004951691,0.0,0.0,0.004951185,0.0,0.0049509807,3.0948067E-4,0.0,0.3494234,3.0944907E-4,0.0,3.094363E-4,,1000000.0,5453,6013,5846,5806,73,51,51,74,85.46875,86.927086,89.0625,86.510414,84.84375,85.15625,88.28125,87.395836,0.0,0.0,0.0,0.0,1614.7,1619.6,1619.6,1615.3,6.08,3.93,6.76,4.26,0,0,0,0,0.123,62.23,68.92,71.38,66.82,0.33936465,0.059313763,0.05643971,-0.9370849,-8.3972518658965,4.223446403562961,140.49454827330794,2395.9285,0.47162828,-1.3069348,0,0,65509,16512.0,1620.9817,0,4170,12000.0,16425,16512,-4040,5480,91,30,1,320,6022,
1561816444,2.721,-106.21645074931207,39.96119404231809,2396.5793,2398.1538,-1.4782712968749365,,14,3.3982463242728587,-5.107468220977395,-116.65741126172803,-0.061879754,-0.014866211,-1.0481894,1.0501196,18.711409,-21.794767,-0.49063277,28.729242,0.015206903,0.7607244,-0.3790866,0.8500821,0.7608764294942579,-355,646,1341,1530.0,64.97,-116.65741126172803,6.124755590710786,-83.05876268155248,33.59864858017556,243.34258873827196,-130.10478349418122,-13.44737223245319,0.03741349409807171,0.24565204752214775,-0.09714497283884604,0.09714497283884604,0.05938902850175509,0.46106520880105817,-0.196875,0.04418212528253207,-0.29965921651479877,0.18221161365509034,39.96119436242635,-106.216450810183,false,false,-575.3759147697558,-559.8084168458919,-74.87605728524032,,227.60284575166912,88.96350192962166,88.96350192962166,0.52316886,-0.022351429,-0.048593894,-0.85054886,0.12025633,-0.36257407,-0.24206734,0.0053849197,-0.008647949,0.0017413188,100,4696,0,0,19,-106.216452,39.9611941,20180619,200829,2018-06-19T20:08:29Z,2485.746,0.75,1.27,7.3,8,6,14,0.03,0.4,-0.1,20180619,200829,16380,0.0,0.0,0.0,0.0,AutoTakeoff,2,1,5,5,0,400,805,0.009994919,0.11498551,1.0,6,1,6,6,0,0,0,0,0,0,0,0,0,0,0,0,0,0,0,0,0,0,65536,15,10,0,0,false,false,false,false,false,false,false,false,false,false,3.24,7.18,-3.38,0.02369425,-0.08063021,0.0022722676,0.004951691,0.0,0.0,0.004951185,0.0,0.0049509807,3.0948067E-4,0.0,0.3494234,3.0944907E-4,0.0,3.094363E-4,,1000000.0,5453,6013,5846,5806,73,51,51,74,85.46875,86.927086,89.0625,86.510414,84.84375,85.15625,88.28125,87.395836,0.0,0.0,0.0,0.0,1614.7,1619.6,1619.6,1615.3,6.08,3.93,6.76,4.26,0,0,0,0,0.176,63.61,63.74,72.41,71.68,0.33936465,0.059313763,0.05643971,-0.9370849,-8.3972518658965,4.223446403562961,140.49454827330794,2395.9285,0.47162828,-1.3069348,0,0,65509,16535.0,1620.9817,0,4170,12000.0,16407,16535,-4040,5480,91,30,1,320,6022,
1562224147,2.811,-106.21645074931207,39.96119404231809,2396.5793,2398.1538,-1.4782712968749365,,14,3.3982463242728587,-5.107468220977395,-116.65741126172803,-0.061879754,-0.014866211,-1.0481894,1.0501196,18.711409,-21.794767,-0.49063277,28.729242,0.015206903,0.7607244,-0.3790866,0.8500821,0.7608764294942579,-355,646,1341,1530.0,64.97,-116.65741126172803,6.124755590710786,-83.05876268155248,33.59864858017556,243.34258873827196,-130.10478349418122,-13.44737223245319,0.03741349409807171,0.24565204752214775,-0.09714497283884604,0.09714497283884604,0.05938902850175509,0.46106520880105817,-0.196875,0.04418212528253207,-0.29965921651479877,0.18221161365509034,39.96119436242635,-106.216450810183,false,false,-575.3759147697558,-559.8084168458919,-74.87605728524032,,227.60284575166912,88.96350192962166,88.96350192962166,0.52316886,-0.022351429,-0.048593894,-0.85054886,0.12025633,-0.36257407,-0.24206734,0.0053849197,-0.008647949,0.0017413188,100,4696,0,0,19,-106.216452,39.9611941,20180619,200829,2018-06-19T20:08:29Z,2485.746,0.75,1.27,7.3,8,6,14,0.03,0.4,-0.1,20180619,200829,16380,0.0,0.0,0.0,0.0,AutoTakeoff,2,1,5,5,0,400,805,0.009994919,0.11498551,1.0,6,1,6,6,0,0,0,0,0,0,0,0,0,0,0,0,0,0,0,0,0,0,65536,15,10,0,0,false,false,false,false,false,false,false,false,false,false,3.24,7.18,-3.38,0.02369425,-0.08063021,0.0022722676,0.004951691,0.0,0.0,0.004951185,0.0,0.0049509807,3.0948067E-4,0.0,0.3494234,3.0944907E-4,0.0,3.094363E-4,,1000000.0,5533,5533,6145,6112,74,52,51,74,84.791664,87.5,89.6875,88.75,84.21875,86.71875,88.4375,87.1875,0.0,0.0,0.0,0.0,1612.9,1617.7,1618.4,1613.5,4.41,5.38,6.56,6.74,0,0,0,0,0.176,63.61,63.74,72.41,71.68,0.33936465,0.059313763,0.05643971,-0.9370849,-8.3972518658965,4.223446403562961,140.49454827330794,2395.9285,0.47162828,-1.3069348,0,0,65509,16535.0,1620.9817,0,4170,12000.0,16407,16535,-4040,5480,91,30,1,320,6022,
1562405686,2.852,-106.21644970823745,39.961194070402236,2396.2834,2398.195,-1.7741697343749365,,14,3.4007347462394546,-6.857411697837476,-116.65257049980657,-0.086208,-0.05058287,-1.0370983,1.0419037,-6.110433,-12.341629,-2.1490643,13.938138,-0.035106804,0.7377729,-0.41685802,0.8481226,0.7386077078349174,-237,709,1327,1523.0,64.98,-116.65257049980657,7.640032864444628,-90.35715380165932,26.295416698147243,243.3474295001934,-122.35398883264185,-5.701418332835274,0.03637714213698118,0.3236911605259447,-0.138596373991545,0.138596373991545,0.05938902850175509,0.46106520880105817,-0.196875,0.09449583272362361,-0.2767076731836525,0.2199830174446106,39.96119435310617,-106.21644989453883,false,false,-575.5133855662127,-559.152180129775,-76.6538209714705,,227.6916300683947,87.98431717709994,87.98431717709994,0.5224003,-0.035323363,-0.056597214,-0.85008645,0.0067786127,-0.4174015,-0.3336172,0.005383843,-0.008645869,0.0017413276,100,4697,0,0,59,-106.216452,39.9611941,20180619,200829,2018-06-19T20:08:29Z,2485.746,0.75,1.27,7.3,8,6,14,0.03,0.4,-0.1,20180619,200829,16390,0.0,0.0,0.0,0.0,AutoTakeoff,2,1,5,5,0,400,805,0.014391988,0.27405176,1.0,6,1,6,6,0,0,0,0,0,0,0,0,0,0,0,0,0,0,0,0,0,0,65536,15,10,0,0,false,true,false,false,false,false,false,false,false,false,3.24,7.18,-3.38,0.02369425,-0.08063021,0.0022722676,0.004951691,0.0,0.0,0.004951185,0.0,0.0049509807,3.0948067E-4,0.0,0.3494234,3.0944907E-4,0.0,3.094363E-4,,1000000.0,5180,5765,6489,5902,73,52,51,73,83.072914,85.833336,90.9375,88.020836,82.03125,85.208336,90.520836,87.552086,0.0,0.0,0.0,0.0,1613.5,1619.6,1619.6,1615.3,3.85,4.62,7.05,4.75,0,0,0,0,0.176,59.15,69.27,75.32,66.6,0.33936465,0.059313763,0.05643971,-0.9370849,-8.3972518658965,4.223446403562961,140.49454827330794,2395.9285,0.47162828,-1.3069348,0,0,65509,16535.0,1620.9817,0,4170,12000.0,16407,16535,-4040,5480,91,30,1,320,6022,
1562583021,2.891,-106.21644970823745,39.961194070402236,2396.2834,2398.195,-1.7741697343749365,,14,3.4007347462394546,-6.857411697837476,-116.65257049980657,-0.086208,-0.05058287,-1.0370983,1.0419037,-6.110433,-12.341629,-2.1490643,13.938138,-0.035106804,0.7377729,-0.41685802,0.8481226,0.7386077078349174,-237,709,1327,1523.0,64.98,-116.65257049980657,7.640032864444628,-90.35715380165932,26.295416698147243,243.3474295001934,-122.35398883264185,-5.701418332835274,0.03637714213698118,0.3236911605259447,-0.138596373991545,0.138596373991545,0.05938902850175509,0.46106520880105817,-0.196875,0.09449583272362361,-0.2767076731836525,0.2199830174446106,39.96119435310617,-106.21644989453883,false,false,-575.5133855662127,-559.152180129775,-76.6538209714705,,227.6916300683947,87.98431717709994,87.98431717709994,0.5224003,-0.035323363,-0.056597214,-0.85008645,0.0067786127,-0.4174015,-0.3336172,0.005383843,-0.008645869,0.0017413276,100,4697,0,0,59,-106.2164504,39.9611939,20180619,200829,2018-06-19T20:08:29Z,2485.802,0.75,1.27,7.31,8,6,14,-0.05,0.67,-0.16,20180619,200829,16390,0.0,0.0,0.0,0.0,AutoTakeoff,2,1,5,5,0,400,805,0.014391988,0.27405176,1.0,6,1,6,6,0,0,0,0,0,0,0,0,0,0,0,0,0,0,0,0,0,0,65536,15,10,0,0,false,true,false,false,false,false,false,false,false,false,,,,,,,0.031999998,0.0,0.0,0.031999998,0.0,0.031999998,0.0019999999,0.0,0.34762466,0.0019999999,0.0,0.0019999999,,1000000.0,5180,5765,6489,5902,73,52,51,73,83.072914,85.833336,90.9375,88.020836,82.03125,85.208336,90.520836,87.552086,0.0,0.0,0.0,0.0,1613.5,1619.6,1619.6,1615.3,3.85,4.62,7.05,4.75,0,0,0,0,0.176,59.15,69.27,75.32,66.6,0.33936465,0.059313763,0.05643971,-0.9370849,-8.3972518658965,4.223446403562961,140.49454827330794,2395.9285,0.47162828,-1.3069348,0,0,65509,16535.0,1620.9817,0,4170,12000.0,16407,16535,-4040,5480,91,30,1,320,6022,
1562754172,2.929,-106.21644887222703,39.96119408428309,2396.8862,2398.2373,-1.1713865312499365,,14,3.745806752949077,-7.1251348069923335,-116.49022333863475,-0.07900773,-0.042579837,-1.0387243,1.0425946,15.97719,-8.519599,2.1482346,18.233734,-0.030275453,0.67316943,-0.43864185,0.80404,0.6738499071221777,-240,686,1344,1527.0,64.97,-116.49022333863475,8.031938571481557,-88.8468835653603,27.643339773274455,243.50977666136527,-124.4956354866264,-8.005412147991649,0.0329691558352998,0.3972351508769716,-0.1831884689338903,0.1831884689338903,0.018990303818380152,0.7363050968979076,-0.3874243311853154,0.04926575670043162,0.06313566282732042,0.05121751499464677,39.96119432245738,-106.21644903163657,false,false,-575.5134288133406,-558.6378850610309,-77.74119210811442,,227.7628988191137,88.75903685915416,88.75903685915416,0.523262,-0.035641447,-0.060421642,-0.8492796,0.04443741,-0.6881697,-0.42234612,0.00537878,-0.008566424,0.0017037513,100,4697,0,0,99,-106.2164504,39.9611939,20180619,200829,2018-06-19T20:08:29Z,2485.802,0.75,1.27,7.31,8,6,14,-0.05,0.67,-0.16,20180619,200829,16390,0.0,0.0,0.0,0.0,AutoTakeoff,2,1,5,5,0,400,805,0.014391988,0.27405176,1.0,6,1,6,6,0,0,0,0,0,0,0,0,0,0,0,0,0,0,0,0,0,0,65536,15,10,0,0,false,true,false,false,false,false,false,false,false,false,,,,,,,0.031999998,0.0,0.0,0.031999998,0.0,0.031999998,0.0019999999,0.0,0.34762466,0.0019999999,0.0,0.0019999999,,1000000.0,5180,5765,6489,5902,73,52,51,73,83.072914,85.833336,90.9375,88.020836,82.03125,85.208336,90.520836,87.552086,0.0,0.0,0.0,0.0,1613.5,1619.6,1619.6,1615.3,3.85,4.62,7.05,4.75,0,0,0,0,,59.07,63.44,73.96,73.3,0.33936465,0.059313763,0.05643971,-0.9370849,-8.3972518658965,4.223446403562961,140.49454827330794,2395.9285,0.47162828,-1.3069348,0,0,65509,16581.0,1620.9817,0,4170,12000.0,16424,16581,-4040,5480,91,30,1,320,6022,
1563152269,3.018,-106.21644887222703,39.96119408428309,2396.8862,2398.2373,-1.1713865312499365,,14,3.745806752949077,-7.1251348069923335,-116.49022333863475,-0.07900773,-0.042579837,-1.0387243,1.0425946,15.97719,-8.519599,2.1482346,18.233734,-0.030275453,0.67316943,-0.43864185,0.80404,0.6738499071221777,-240,686,1344,1527.0,64.97,-116.49022333863475,8.031938571481557,-88.8468835653603,27.643339773274455,243.50977666136527,-124.4956354866264,-8.005412147991649,0.0329691558352998,0.3972351508769716,-0.1831884689338903,0.1831884689338903,0.018990303818380152,0.7363050968979076,-0.3874243311853154,0.04926575670043162,0.06313566282732042,0.05121751499464677,39.96119432245738,-106.21644903163657,false,false,-575.5134288133406,-558.6378850610309,-77.74119210811442,,227.7628988191137,88.75903685915416,88.75903685915416,0.523262,-0.035641447,-0.060421642,-0.8492796,0.04443741,-0.6881697,-0.42234612,0.00537878,-0.008566424,0.0017037513,100,4697,0,0,99,-106.2164504,39.9611939,20180619,200829,2018-06-19T20:08:29Z,2485.802,0.75,1.27,7.31,8,6,14,-0.05,0.67,-0.16,20180619,200829,16390,0.0,0.0,0.0,0.0,AutoTakeoff,2,1,5,5,0,400,805,0.014391988,0.27405176,1.0,6,1,6,6,0,0,0,0,0,0,0,0,0,0,0,0,0,0,0,0,0,0,65536,15,10,0,0,false,true,false,false,false,false,false,false,false,false,,,,,,,0.031999998,0.0,0.0,0.031999998,0.0,0.031999998,0.0019999999,0.0,0.34762466,0.0019999999,0.0,0.0019999999,,1000000.0,5177,5545,6474,6228,72,50,53,74,84.375,85.052086,89.583336,89.427086,83.75,83.59375,88.229164,89.635414,0.0,0.0,0.0,0.0,1615.3,1620.8,1620.8,1615.9,5.58,4.44,4.75,6.97,0,0,0,0,,59.07,63.44,73.96,73.3,0.33936465,0.059313763,0.05643971,-0.9370849,-8.3972518658965,4.223446403562961,140.49454827330794,2395.9285,0.47162828,-1.3069348,0,0,65509,16581.0,1620.9817,0,4170,12000.0,16424,16581,-4040,5480,91,30,1,320,6022,
1563342298,3.060,-106.21644793834355,39.96119409190096,2397.9824,2398.2788,-0.07519512499993652,,14,4.103729370801281,-8.026178275571805,-116.2992123797934,-0.09133681,-0.025614722,-1.0460286,1.0503211,-16.72449,-12.270258,-2.6769278,20.914917,-0.040812355,0.5816617,-0.46322018,0.7446938,0.5830917425780924,-209,723,1310,1510.0,64.96,-116.2992123797934,8.990257316439273,-89.33155448740912,26.96765789238428,243.7007876202066,-122.29946533712487,-6.000252957331469,0.029267027436954862,0.46258455677123855,-0.23015586230876117,0.23015586230876117,0.018990303818380152,0.7363050968979076,-0.3874243311853154,0.05980265835324458,0.154643395695515,0.07579584789564775,39.961194289163316,-106.21644826488256,false,false,-575.5409622283908,-558.676803093109,-78.82389141286659,,227.84249695074996,89.39025819267967,89.39025819267967,0.5239433,-0.04056099,-0.06724579,-0.84812516,0.15782934,-0.47212982,-0.17381763,0.0053797923,-0.008569513,0.0017045616,100,4698,0,0,139,-106.2164504,39.9611939,20180619,200829,2018-06-19T20:08:29Z,2485.802,0.75,1.27,7.31,8,6,14,-0.05,0.67,-0.16,20180619,200829,16400,0.0,0.0,0.0,0.0,AutoTakeoff,2,1,5,5,0,400,805,0.016785214,0.4250664,1.0,6,1,6,6,0,0,0,0,0,0,0,0,0,0,0,0,0,0,0,0,0,0,65536,15,10,0,0,false,true,false,false,false,false,false,false,false,false,,,,,,,0.031999998,0.0,0.0,0.031999998,0.0,0.031999998,0.0019999999,0.0,0.34762466,0.0019999999,0.0,0.0019999999,,1000000.0,5173,5825,6302,5912,73,53,52,74,81.197914,85.78125,90.989586,87.395836,80.885414,83.072914,90.260414,89.322914,0.0,0.0,0.0,0.0,1614.7,1618.4,1619.6,1615.3,2.56,5.2,7.2,3.5,0,0,0,0,,56.47,70.96,74.96,64.75,0.33247206,-0.053615138,-0.06164652,-0.93956774,8.713470876788325,-3.466008729431179,141.29083684140576,2395.9922,-0.48749933,-0.3570761,0,0,65609,16581.0,1620.9817,0,4170,12000.0,16424,16581,-4040,5480,91,30,1,320,6022,
1563509153,3.097,-106.21644793834355,39.96119409190096,2397.9824,2398.2788,-0.07519512499993652,,14,4.103729370801281,-8.026178275571805,-116.2992123797934,-0.09133681,-0.025614722,-1.0460286,1.0503211,-16.72449,-12.270258,-2.6769278,20.914917,-0.040812355,0.5816617,-0.46322018,0.7446938,0.5830917425780924,-209,723,1310,1510.0,64.96,-116.2992123797934,8.990257316439273,-89.33155448740912,26.96765789238428,243.7007876202066,-122.29946533712487,-6.000252957331469,0.029267027436954862,0.46258455677123855,-0.23015586230876117,0.23015586230876117,0.018990303818380152,0.7363050968979076,-0.3874243311853154,0.05980265835324458,0.154643395695515,0.07579584789564775,39.961194289163316,-106.21644826488256,false,false,-575.5409622283908,-558.676803093109,-78.82389141286659,,227.84249695074996,89.39025819267967,89.39025819267967,0.5239433,-0.04056099,-0.06724579,-0.84812516,0.15782934,-0.47212982,-0.17381763,0.0053797923,-0.008569513,0.0017045616,100,4698,0,0,139,-106.2164489,39.9611938,20180619,200830,2018-06-19T20:08:30Z,2485.875,0.84,1.46,7.33,8,5,13,-0.07,0.64,-0.23,20180619,200830,16400,0.0,0.0,0.0,0.0,AutoTakeoff,2,1,5,5,0,400,805,0.016785214,0.4250664,1.0,6,1,6,6,0,0,0,0,0,0,0,0,0,0,0,0,0,0,0,0,0,0,65536,15,10,0,0,false,true,false,false,false,false,false,false,false,false,,,,,,,0.031999998,0.0,0.0,0.031999998,0.0,0.031999998,0.0019999999,0.0,0.34869915,0.0019999999,0.0,0.0019999999,,1000000.0,5173,5825,6302,5912,73,53,52,74,81.197914,85.78125,90.989586,87.395836,80.885414,83.072914,90.260414,89.322914,0.0,0.0,0.0,0.0,1614.7,1618.4,1619.6,1615.3,2.56,5.2,7.2,3.5,0,0,0,0,,56.47,70.96,74.96,64.75,0.33247206,-0.053615138,-0.06164652,-0.93956774,8.713470876788325,-3.466008729431179,141.29083684140576,2395.9922,-0.48749933,-0.3570761,0,0,65609,16581.0,1620.9817,0,4170,12000.0,16424,16581,-4040,5480,91,30,1,320,6022,
