clock_offset,imu_longitude,imu_latitude,imu_rel_height,roll,pitch,yaw,accel_x,accel_y,accel_z,accel_composite,gyro_x,gyro_z,gyro_composite,vel_north,vel_east,vel_down,vel_composite,compass_interference,temperature,tilt_inclination,imu_pos_north,imu_pos_east,imu_pos_down,delta_vel_north,delta_vel_east,delta_vel_down,pos_error,total_gyro_z,total_gyro_x,total_gyro_y,dist_travelled,direction_travel_magnetic,direction_travel_true,imu_sensor_status,imu_filter_status,altitude_counter,gps_longitude,gps_latitude,gps_timestamp,gps_heightMSL,gps_hdop,gps_pdop,gps_speed_accuracy,num_satellites,gps_vel_north,gps_vel_east,gps_vel_down,control_mode,motor_state,battery_very_low,battery_level1,battery_level2,batter_go_home,batter_land,batter_go_home_time,batter_land_time,oa_emergency_brake,hover_point_uncertainty1,hover_point_uncertainty2,hover_point_uncertainty3,hover_point_uncertainty4,hover_point_uncertainty5,hover_point_uncertainty6,velocity_uncertainty1,velocity_uncertainty3,velocity_uncertainty4,velocity_uncertainty6
0.0,,,,,,,,,,,,,,,,,,,,,,,,,,,,,,,,,,,,,,,,,,,,,,,,,,,,,,,,,,,,,,,,,,,
510.474,,,,,,,,,,,,,,,,,,,,,,,,,,,,,,,,,,,,,,,,,,,,,,,,,,,,,,,,,,,,,,,,,,,
510.513,-106.22128748309076,39.95896744028825,,-5.792827949148777,5.478692163170334,40.55582554661389,0.027013088,0.13931952,-1.027112,1.0368696,12.774399,-0.7741458,12.801313,0.013826042,-0.02641076,0.013233513,0.032616153,1505.0,64.94,7.947805711251597,0.0,0.0,0.0,,,,False,0.0,0.0,0.0,0.0,,,0.0,0.0,5403.0,,,,,,,,,,,,GPS_Atti,1.0,,,,,,,,False,,,,,,,,,,
510.556,-106.22128748309076,39.95896744028825,,-5.792827949148777,5.478692163170334,40.55582554661389,0.027013088,0.13931952,-1.027112,1.0368696,12.774399,-0.7741458,12.801313,0.013826042,-0.02641076,0.013233513,0.032616153,1505.0,64.94,7.947805711251597,0.0,0.0,0.0,,,,False,0.0,0.0,0.0,0.0,,,0.0,0.0,5403.0,-106.2212875,39.9589674,2018-06-19 20:11:27+00:00,2521.425,0.66,1.09,7.59,8.0,0.11,-0.08,0.12,GPS_Atti,1.0,,,,,,,,False,0.031999998,0.0,0.0,0.031999998,0.0,0.031999998,0.0019999999,0.99066037,0.0019999999,0.0019999999
510.596,-106.22128753171444,39.958967446958354,,-6.070736184600664,4.080475083732314,40.447572317502456,0.049137585,0.17637223,-1.0891784,1.1044598,-17.31948,-2.2425854,27.837477,-0.069627374,0.0013535284,-0.08502655,0.10990594,1514.0,65.0,7.297728039300545,0.0,0.0,0.0,,,,False,0.0,0.0,0.0,0.0042101125864859,-79.8534301030615,-79.8534301030615,0.0,0.0,5443.0,-106.2212875,39.9589674,2018-06-19 20:11:27+00:00,2521.425,0.66,1.09,7.59,8.0,0.11,-0.08,0.12,GPS_Atti,1.0,0.0,0.0,0.0,20.0,10.0,73.0,14.0,False,0.031999998,0.0,0.0,0.031999998,0.0,0.031999998,0.0019999999,0.99066037,0.0019999999,0.0019999999
510.672,-106.22128753171444,39.958967446958354,,-6.070736184600664,4.080475083732314,40.447572317502456,0.049137585,0.17637223,-1.0891784,1.1044598,-17.31948,-2.2425854,27.837477,-0.069627374,0.0013535284,-0.08502655,0.10990594,1514.0,65.0,7.297728039300545,0.0,0.0,0.0,,,,False,0.0,0.0,0.0,0.0042101125864859,-79.8534301030615,-79.8534301030615,0.0,0.0,5443.0,-106.2212875,39.9589674,2018-06-19 20:11:27+00:00,2521.425,0.66,1.09,7.59,8.0,0.11,-0.08,0.12,GPS_Atti,1.0,0.0,0.0,0.0,20.0,10.0,73.0,14.0,False,0.031999998,0.0,0.0,0.031999998,0.0,0.031999998,0.0019999999,0.99066037,0.0019999999,0.0019999999
510.713,-106.2212875048999,39.95896735941321,,-8.297070231943662,1.8986452830481808,40.38168311754213,0.07310481,0.18160349,-1.0115408,1.03031,-21.495346,-0.5717358,24.982025,-0.056947716,0.020835828,-0.1145564,0.12961614,1525.0,65.0,8.505674814117672,-0.0028484285228387,0.0010421729172094,-0.0057299176887681,,,,False,-0.028597258760783,-1.0751608950085938,-0.6360881027358118,0.0142093736790807,166.7876304844095,166.7876304844095,0.0,0.0,5483.0,-106.2212875,39.9589674,2018-06-19 20:11:27+00:00,2521.425,0.66,1.09,7.59,8.0,0.11,-0.08,0.12,GPS_Atti,1.0,0.0,0.0,0.0,20.0,10.0,73.0,14.0,False,0.031999998,0.0,0.0,0.031999998,0.0,0.031999998,0.0019999999,0.99066037,0.0019999999,0.0019999999
510.756,-106.2212875048999,39.95896735941321,,-8.297070231943662,1.8986452830481808,40.38168311754213,0.07310481,0.18160349,-1.0115408,1.03031,-21.495346,-0.5717358,24.982025,-0.056947716,0.020835828,-0.1145564,0.12961614,1525.0,65.0,8.505674814117672,-0.0028484285228387,0.0010421729172094,-0.0057299176887681,,,,False,-0.028597258760783,-1.0751608950085938,-0.6360881027358118,0.0142093736790807,166.7876304844095,166.7876304844095,0.0,0.0,5483.0,-106.2212876,39.9589673,2018-06-19 20:11:27+00:00,2521.436,0.66,1.09,7.59,8.0,-0.01,-0.03,0.07,GPS_Atti,1.0,0.0,0.0,0.0,20.0,10.0,73.0,14.0,False,0.031999998,0.0,0.0,0.031999998,0.0,0.031999998,0.0019999999,0.98946434,0.0019999999,0.0019999999
510.798,-106.2212874326794,39.95896728187322,,-9.194116449546414,2.368371835141221,40.50907619382121,0.09668325,0.16848694,-0.94873846,0.96842146,-4.113054,-0.73822355,5.4282174,-0.036972158,0.06445292,-0.09606786,0.12145021,1509.0,64.98,9.484245766199106,-0.0075447088054261,0.0053068704187921,-0.0162617735975345,,,,False,-0.094099224040292,-2.3556590390435304,-1.098742259953724,0.0248032140587201,144.4761975416407,144.4761975416407,0.0,0.0,5523.0,-106.2212876,39.9589673,2018-06-19 20:11:27+00:00,2521.436,0.66,1.09,7.59,8.0,-0.01,-0.03,0.07,GPS_Atti,1.0,0.0,0.0,0.0,20.0,10.0,73.0,14.0,False,0.031999998,0.0,0.0,0.031999998,0.0,0.031999998,0.0019999999,0.98946434,0.0019999999,0.0019999999
510.874,-106.2212874326794,39.95896728187322,,-9.194116449546414,2.368371835141221,40.50907619382121,0.09668325,0.16848694,-0.94873846,0.96842146,-4.113054,-0.73822355,5.4282174,-0.036972158,0.06445292,-0.09606786,0.12145021,1509.0,64.98,9.484245766199106,-0.0075447088054261,0.0053068704187921,-0.0162617735975345,,,,False,-0.094099224040292,-2.3556590390435304,-1.098742259953724,0.0248032140587201,144.4761975416407,144.4761975416407,0.0,0.0,5523.0,-106.2212876,39.9589673,2018-06-19 20:11:27+00:00,2521.436,0.66,1.09,7.59,8.0,-0.01,-0.03,0.07,GPS_Atti,1.0,0.0,0.0,0.0,20.0,10.0,73.0,14.0,False,0.031999998,0.0,0.0,0.031999998,0.0,0.031999998,0.0019999999,0.98946434,0.0019999999,0.0019999999
510.913,-106.22128737583256,39.95896727478623,,-9.461839297804683,2.892199326738967,40.54891455359099,0.093948655,0.16669312,-0.96663576,0.9853921,-2.1005104,2.046405,7.515347,-0.049943935,0.13194057,-0.07821832,0.16130969,1513.0,64.97,9.878836201783688,-0.0118907786914519,0.0151271442560414,-0.0249766144389695,,,,False,-0.0286861555732684,-2.6663562092107895,-0.5795024844701402,0.02971201698733,99.23798001587272,99.23798001587272,0.0,0.0,5563.0,-106.2212876,39.9589673,2018-06-19 20:11:27+00:00,2521.436,0.66,1.09,7.59,8.0,-0.01,-0.03,0.07,GPS_Atti,1.0,0.0,0.0,0.0,20.0,10.0,73.0,14.0,False,0.031999998,0.0,0.0,0.031999998,0.0,0.031999998,0.0019999999,0.98946434,0.0019999999,0.0019999999
510.954,-106.22128737583256,39.95896727478623,,-9.461839297804683,2.892199326738967,40.54891455359099,0.093948655,0.16669312,-0.96663576,0.9853921,-2.1005104,2.046405,7.515347,-0.049943935,0.13194057,-0.07821832,0.16130969,1513.0,64.97,9.878836201783688,-0.0118907786914519,0.0151271442560414,-0.0249766144389695,,,,False,-0.0286861555732684,-2.6663562092107895,-0.5795024844701402,0.02971201698733,99.23798001587272,99.23798001587272,0.0,0.0,5563.0,-106.2212876,39.9589673,2018-06-19 20:11:27+00:00,2521.45,0.66,1.09,7.59,8.0,-0.04,0.01,0.02,GPS_Atti,1.0,0.0,0.0,0.0,20.0,10.0,73.0,14.0,False,0.031999998,0.0,0.0,0.031999998,0.0,0.031999998,0.0019999999,0.98865455,0.0019999999,0.0019999999
510.987,-106.2212872514131,39.9589672822901,,-10.070863525411152,4.072896726689926,40.696655130494335,0.082129255,0.17432804,-0.9070377,0.9272825,-7.058672,1.5523355,14.19286,-0.037614167,0.16429627,-0.036276113,0.17240663,1507.0,65.0,10.832320477217497,-0.0162689509907068,0.0299398904426766,-0.0307016854364405,0.0090302503517619,-0.0922838610536879,-0.1508869423984105,False,0.1512618557962923,-3.124343276322179,0.3772774296012358,0.0403492408676961,85.50105006146129,85.50105006146129,0.0,0.0,5603.0,-106.2212876,39.9589673,2018-06-19 20:11:27+00:00,2521.45,0.66,1.09,7.59,8.0,-0.04,0.01,0.02,GPS_Atti,1.0,0.0,0.0,0.0,20.0,10.0,73.0,14.0,False,0.031999998,0.0,0.0,0.031999998,0.0,0.031999998,0.0019999999,0.98865455,0.0019999999,0.0019999999
511.072,-106.2212872514131,39.9589672822901,,-10.070863525411152,4.072896726689926,40.696655130494335,0.082129255,0.17432804,-0.9070377,0.9272825,-7.058672,1.5523355,14.19286,-0.037614167,0.16429627,-0.036276113,0.17240663,1507.0,65.0,10.832320477217497,-0.0162689509907068,0.0299398904426766,-0.0307016854364405,0.0090302503517619,-0.0922838610536879,-0.1508869423984105,False,0.1512618557962923,-3.124343276322179,0.3772774296012358,0.0403492408676961,85.50105006146129,85.50105006146129,0.0,0.0,5603.0,-106.2212876,39.9589673,2018-06-19 20:11:27+00:00,2521.45,0.66,1.09,7.59,8.0,-0.04,0.01,0.02,GPS_Atti,1.0,0.0,0.0,0.0,20.0,10.0,73.0,14.0,False,0.031999998,0.0,0.0,0.031999998,0.0,0.031999998,0.0019999999,0.98865455,0.0019999999,0.0019999999
511.113,-106.2212870665715,39.958967198496886,,-10.284886033160578,4.223238719877622,40.8122041714083,0.08464451,0.17957932,-0.95830137,0.97864956,0.34865254,2.4649866,2.5171478,-0.0050719306,0.183162,0.025135756,0.18494822,1504.0,65.0,11.0843182802049,-0.0184040374626874,0.0473191662522936,-0.031258907307631,-0.0235119857975491,-0.1111495953924483,-0.2122988111792618,False,0.3522015183325493,-3.459967110929938,1.006846075182693,0.0586525709816115,120.60082833445011,120.60082833445011,0.0,0.0,5643.0,-106.2212876,39.9589673,2018-06-19 20:11:27+00:00,2521.45,0.66,1.09,7.59,8.0,-0.04,0.01,0.02,GPS_Atti,1.0,0.0,0.0,0.0,20.0,10.0,73.0,14.0,False,0.031999998,0.0,0.0,0.031999998,0.0,0.031999998,0.0019999999,0.98865455,0.0019999999,0.0019999999
511.154,-106.2212870665715,39.958967198496886,,-10.284886033160578,4.223238719877622,40.8122041714083,0.08464451,0.17957932,-0.95830137,0.97864956,0.34865254,2.4649866,2.5171478,-0.0050719306,0.183162,0.025135756,0.18494822,1504.0,65.0,11.0843182802049,-0.0184040374626874,0.0473191662522936,-0.031258907307631,-0.0235119857975491,-0.1111495953924483,-0.2122988111792618,False,0.3522015183325493,-3.459967110929938,1.006846075182693,0.0586525709816115,120.60082833445011,120.60082833445011,0.0,0.0,5643.0,-106.2212874,39.9589672,2018-06-19 20:11:27+00:00,2521.457,0.66,1.09,7.59,8.0,-0.02,0.12,0.02,GPS_Atti,1.0,0.0,0.0,0.0,20.0,10.0,73.0,14.0,False,0.031999998,0.0,0.0,0.031999998,0.0,0.031999998,0.0019999999,0.98782265,0.0019999999,0.0019999999
511.187,-106.2212868745794,39.958967122415984,,-10.257068934594953,4.779083982292803,40.9076860153546,0.081844404,0.18540964,-0.9817768,1.0024774,-2.118107,-0.78905696,9.054144,-0.0047092997,0.19256544,0.025282145,0.1942751,1513.0,65.01,11.273387992973204,-0.0188931288246863,0.0661066851258169,-0.028737858440138,-0.0238746167310722,-0.1205530327684707,-0.2124452001868302,False,0.4360031131618598,-3.5484452378177593,1.4638428520102025,0.0770737837814087,117.33826056645924,117.33826056645924,0.0,0.0,5683.0,-106.2212874,39.9589672,2018-06-19 20:11:27+00:00,2521.457,0.66,1.09,7.59,8.0,-0.02,0.12,0.02,GPS_Atti,1.0,0.0,0.0,0.0,20.0,10.0,73.0,14.0,False,0.031999998,0.0,0.0,0.031999998,0.0,0.031999998,0.0019999999,0.98782265,0.0019999999,0.0019999999
511.274,-106.2212868745794,39.958967122415984,,-10.257068934594953,4.779083982292803,40.9076860153546,0.081844404,0.18540964,-0.9817768,1.0024774,-2.118107,-0.78905696,9.054144,-0.0047092997,0.19256544,0.025282145,0.1942751,1513.0,65.01,11.273387992973204,-0.0188931288246863,0.0661066851258169,-0.028737858440138,-0.0238746167310722,-0.1205530327684707,-0.2124452001868302,False,0.4360031131618598,-3.5484452378177593,1.4638428520102025,0.0770737837814087,117.33826056645924,117.33826056645924,0.0,0.0,5683.0,-106.2212874,39.9589672,2018-06-19 20:11:27+00:00,2521.457,0.66,1.09,7.59,8.0,-0.02,0.12,0.02,GPS_Atti,1.0,0.0,0.0,0.0,20.0,10.0,73.0,14.0,False,0.031999998,0.0,0.0,0.031999998,0.0,0.031999998,0.0019999999,0.98782265,0.0019999999,0.0019999999
511.313,-106.22128667043133,39.9589671322127,,-10.453545281155703,5.092636216427534,40.93379273795082,0.07075761,0.19846958,-0.98550797,1.0077811,-8.696309,1.0888153,10.041049,-0.0115425605,0.19949064,0.017797247,0.20061527,1511.0,64.93,11.579422058964177,-0.019705523447044,0.0857047031709612,-0.0265844147555185,-0.0440801956756498,-0.0344410371652399,-0.2668054858185658,False,0.450987372736563,-4.089034034407632,1.6571621709426836,0.0945076800442341,86.41757744715991,86.41757744715991,0.0,0.0,5723.0,-106.2212874,39.9589672,2018-06-19 20:11:27+00:00,2521.457,0.66,1.09,7.59,8.0,-0.02,0.12,0.02,GPS_Atti,1.0,0.0,0.0,0.0,20.0,10.0,73.0,14.0,False,0.031999998,0.0,0.0,0.031999998,0.0,0.031999998,0.0019999999,0.98782265,0.0019999999,0.0019999999
511.354,-106.22128667043133,39.9589671322127,,-10.453545281155703,5.092636216427534,40.93379273795082,0.07075761,0.19846958,-0.98550797,1.0077811,-8.696309,1.0888153,10.041049,-0.0115425605,0.19949064,0.017797247,0.20061527,1511.0,64.93,11.579422058964177,-0.019705523447044,0.0857047031709612,-0.0265844147555185,-0.0440801956756498,-0.0344410371652399,-0.2668054858185658,False,0.450987372736563,-4.089034034407632,1.6571621709426836,0.0945076800442341,86.41757744715991,86.41757744715991,0.0,0.0,5723.0,-106.2212871,39.9589673,2018-06-19 20:11:27+00:00,2521.439,0.66,1.09,7.59,8.0,0.0,0.15,0.04,GPS_Atti,1.0,0.0,0.0,0.0,20.0,10.0,73.0,14.0,False,0.031999998,0.0,0.0,0.031999998,0.0,0.031999998,0.0019999999,0.98725516,0.0019999999,0.0019999999
511.387,-106.22128649881826,39.95896712429195,,-10.993438667558308,4.6669857169146916,41.002413747723736,0.084161684,0.19783962,-1.0003226,1.0231662,-3.7455716,0.8292729,6.0512633,-0.021569924,0.19827244,-0.004545644,0.19949408,1507.0,64.98,11.89913488039629,-0.0213602382335693,0.1055819319540773,-0.0259221985891713,-0.0340528317792798,-0.0332228374353205,-0.2444625953175434,False,0.5468391037347828,-4.710786343096515,1.1784269891559234,0.1091609991513839,93.44587887586198,93.44587887586198,0.0,0.0,5763.0,-106.2212871,39.9589673,2018-06-19 20:11:27+00:00,2521.439,0.66,1.09,7.59,8.0,0.0,0.15,0.04,GPS_Atti,1.0,0.0,0.0,0.0,20.0,10.0,73.0,14.0,False,0.031999998,0.0,0.0,0.031999998,0.0,0.031999998,0.0019999999,0.98725516,0.0019999999,0.0019999999
511.472,-106.22128649881826,39.95896712429195,,-10.993438667558308,4.6669857169146916,41.002413747723736,0.084161684,0.19783962,-1.0003226,1.0231662,-3.7455716,0.8292729,6.0512633,-0.021569924,0.19827244,-0.004545644,0.19949408,1507.0,64.98,11.89913488039629,-0.0213602382335693,0.1055819319540773,-0.0259221985891713,-0.0340528317792798,-0.0332228374353205,-0.2444625953175434,False,0.5468391037347828,-4.710786343096515,1.1784269891559234,0.1091609991513839,93.44587887586198,93.44587887586198,0.0,0.0,5763.0,-106.2212871,39.9589673,2018-06-19 20:11:27+00:00,2521.439,0.66,1.09,7.59,8.0,0.0,0.15,0.04,GPS_Atti,1.0,0.0,0.0,0.0,20.0,10.0,73.0,14.0,False,0.031999998,0.0,0.0,0.031999998,0.0,0.031999998,0.0019999999,0.98725516,0.0019999999,0.0019999999
511.513,-106.22128629931808,39.95896709656932,,-11.082404660547477,4.972447980815692,40.997058583093725,0.06202804,0.20601588,-0.9850428,1.0082655,-3.122784,1.1397375,3.349853,-0.025228977,0.17893736,-0.00965571,0.18096496,1498.0,64.99,12.097019480150449,-0.0237003261341044,0.124443572982102,-0.0266323096400356,-0.0303937790049697,-0.0138877612224375,-0.2393525289334663,False,0.6452956333123439,-5.054225079285061,0.9650826147790212,0.1264418502811775,100.27560785115868,100.27560785115868,0.0,0.0,5803.0,-106.2212871,39.9589673,2018-06-19 20:11:27+00:00,2521.439,0.66,1.09,7.59,8.0,0.0,0.15,0.04,GPS_Atti,1.0,0.0,0.0,0.0,20.0,10.0,73.0,14.0,False,0.031999998,0.0,0.0,0.031999998,0.0,0.031999998,0.0019999999,0.98725516,0.0019999999,0.0019999999
511.554,-106.22128629931808,39.95896709656932,,-11.082404660547477,4.972447980815692,40.997058583093725,0.06202804,0.20601588,-0.9850428,1.0082655,-3.122784,1.1397375,3.349853,-0.025228977,0.17893736,-0.00965571,0.18096496,1498.0,64.99,12.097019480150449,-0.0237003261341044,0.124443572982102,-0.0266323096400356,-0.0303937790049697,-0.0138877612224375,-0.2393525289334663,False,0.6452956333123439,-5.054225079285061,0.9650826147790212,0.1264418502811775,100.27560785115868,100.27560785115868,0.0,0.0,5803.0,-106.2212867,39.9589673,2018-06-19 20:11:28+00:00,2521.426,0.66,1.09,7.59,8.0,-0.02,0.16,0.05,GPS_Atti,1.0,0.0,0.0,0.0,20.0,10.0,73.0,14.0,False,0.031999998,0.0,0.0,0.031999998,0.0,0.031999998,0.0019999999,0.9868,0.0019999999,0.0019999999
511.587,-106.22128611519152,39.95896706655384,,-11.171523627606549,5.373972610456301,41.05737032764869,0.07575321,0.1723373,-0.9742754,0.992296,5.489659,2.7375796,7.7019033,-0.038876366,0.17510013,0.031583697,0.18212347,1518.0,64.97,12.339009232851003,-0.0269057889217663,0.1421465280921552,-0.0255358434064305,-0.0167463903381015,-0.0100505334010874,-0.2805919358469853,False,0.8391733194930566,-4.935874109493852,1.2186133197301388,0.1424861984889275,102.0064310974713,102.0064310974713,0.0,0.0,5843.0,-106.2212867,39.9589673,2018-06-19 20:11:28+00:00,2521.426,0.66,1.09,7.59,8.0,-0.02,0.16,0.05,GPS_Atti,1.0,0.0,0.0,0.0,20.0,10.0,73.0,14.0,False,0.031999998,0.0,0.0,0.031999998,0.0,0.031999998,0.0019999999,0.9868,0.0019999999,0.0019999999
511.674,-106.22128611519152,39.95896706655384,,-11.171523627606549,5.373972610456301,41.05737032764869,0.07575321,0.1723373,-0.9742754,0.992296,5.489659,2.7375796,7.7019033,-0.038876366,0.17510013,0.031583697,0.18212347,1518.0,64.97,12.339009232851003,-0.0269057889217663,0.1421465280921552,-0.0255358434064305,-0.0167463903381015,-0.0100505334010874,-0.2805919358469853,False,0.8391733194930566,-4.935874109493852,1.2186133197301388,0.1424861984889275,102.0064310974713,102.0064310974713,0.0,0.0,5843.0,-106.2212867,39.9589673,2018-06-19 20:11:28+00:00,2521.426,0.66,1.09,7.59,8.0,-0.02,0.16,0.05,GPS_Atti,1.0,0.0,0.0,0.0,20.0,10.0,73.0,14.0,False,0.031999998,0.0,0.0,0.031999998,0.0,0.031999998,0.0019999999,0.9868,0.0019999999,0.0019999999
511.713,-106.22128594858384,39.95896707530835,,-11.35858499805891,4.997816750782357,40.91903712136967,0.047388814,0.18556933,-1.0068223,1.024877,-6.0944877,1.5119045,8.349191,-0.06407791,0.14621156,-0.02074271,0.16097845,1506.0,64.94,12.357827437427083,-0.0320538167223105,0.1582130935258305,-0.0249937610261667,0.0482577712000935,0.0076127380636989,-0.1684835978811949,False,1.0516604909989835,-4.966117397011658,1.1763280384602697,0.1567197364456852,86.0783772055511,86.0783772055511,0.0,0.0,5883.0,-106.2212867,39.9589673,2018-06-19 20:11:28+00:00,2521.426,0.66,1.09,7.59,8.0,-0.02,0.16,0.05,GPS_Atti,1.0,0.0,0.0,0.0,20.0,10.0,73.0,14.0,False,0.031999998,0.0,0.0,0.031999998,0.0,0.031999998,0.0019999999,0.9868,0.0019999999,0.0019999999
511.751,-106.22128594858384,39.95896707530835,,-11.35858499805891,4.997816750782357,40.91903712136967,0.047388814,0.18556933,-1.0068223,1.024877,-6.0944877,1.5119045,8.349191,-0.06407791,0.14621156,-0.02074271,0.16097845,1506.0,64.94,12.357827437427083,-0.0320538167223105,0.1582130935258305,-0.0249937610261667,0.0482577712000935,0.0076127380636989,-0.1684835978811949,False,1.0516604909989835,-4.966117397011658,1.1763280384602697,0.1567197364456852,86.0783772055511,86.0783772055511,0.0,0.0,5883.0,-106.2212864,39.9589672,2018-06-19 20:11:28+00:00,2521.402,0.66,1.09,7.59,8.0,-0.04,0.15,0.06,GPS_Atti,1.0,0.0,0.0,0.0,20.0,10.0,73.0,14.0,False,0.031999998,0.0,0.0,0.031999998,0.0,0.031999998,0.0019999999,0.9865101,0.0019999999,0.0019999999
511.787,-106.2212858967424,39.95896714492759,,-12.087029714144949,4.9325097096156405,40.92074506997218,0.06276043,0.1594949,-0.92505634,0.94080114,-0.1326315,-1.2148776,5.816515,-0.07788733,0.124692425,-0.029957395,0.15004027,1511.0,64.94,13.000685682105331,-0.0391503453877533,0.1717549860759959,-0.0275281474147277,0.0620671913684933,0.0291318774727642,-0.159268913514015,False,1.0665082088144118,-5.2773973405073775,0.6169927111313882,0.1656332735052971,29.716513457121295,29.716513457121295,0.0,0.0,5923.0,-106.2212864,39.9589672,2018-06-19 20:11:28+00:00,2521.402,0.66,1.09,7.59,8.0,-0.04,0.15,0.06,GPS_Atti,1.0,0.0,0.0,0.0,20.0,10.0,73.0,14.0,False,0.031999998,0.0,0.0,0.031999998,0.0,0.031999998,0.0019999999,0.9865101,0.0019999999,0.0019999999
511.872,-106.2212858967424,39.95896714492759,,-12.087029714144949,4.9325097096156405,40.92074506997218,0.06276043,0.1594949,-0.92505634,0.94080114,-0.1326315,-1.2148776,5.816515,-0.07788733,0.124692425,-0.029957395,0.15004027,1511.0,64.94,13.000685682105331,-0.0391503453877533,0.1717549860759959,-0.0275281474147277,0.0620671913684933,0.0291318774727642,-0.159268913514015,False,1.0665082088144118,-5.2773973405073775,0.6169927111313882,0.1656332735052971,29.716513457121295,29.716513457121295,0.0,0.0,5923.0,-106.2212864,39.9589672,2018-06-19 20:11:28+00:00,2521.402,0.66,1.09,7.59,8.0,-0.04,0.15,0.06,GPS_Atti,1.0,0.0,0.0,0.0,20.0,10.0,73.0,14.0,False,0.031999998,0.0,0.0,0.031999998,0.0,0.031999998,0.0019999999,0.9865101,0.0019999999,0.0019999999
511.913,-106.22128576767506,39.958967108450445,,-11.87615707994731,4.230918277881578,40.8600485814194,0.06614762,0.18545929,-0.99259984,1.0119412,6.5123916,0.58635855,9.4945755,-0.082435705,0.094557606,0.008779567,0.1257532,1518.0,64.98,12.567495507640002,-0.0471669862171495,0.1827181567147704,-0.0285871034599267,0.0666155696572392,0.0592666969207584,-0.1980058752959936,False,1.0350803378150886,-4.958389867442975,-0.0115885521681775,0.1773578098876121,110.23964265758995,110.23964265758995,0.0,0.0,5963.0,-106.2212864,39.9589672,2018-06-19 20:11:28+00:00,2521.402,0.66,1.09,7.59,8.0,-0.04,0.15,0.06,GPS_Atti,1.0,0.0,0.0,0.0,20.0,10.0,73.0,14.0,False,0.031999998,0.0,0.0,0.031999998,0.0,0.031999998,0.0019999999,0.9865101,0.0019999999,0.0019999999
514.154,-106.22128576767506,39.958967108450445,,-11.87615707994731,4.230918277881578,40.8600485814194,0.06614762,0.18545929,-0.99259984,1.0119412,6.5123916,0.58635855,9.4945755,-0.082435705,0.094557606,0.008779567,0.1257532,1518.0,64.98,12.567495507640002,-0.0471669862171495,0.1827181567147704,-0.0285871034599267,0.0666155696572392,0.0592666969207584,-0.1980058752959936,False,1.0350803378150886,-4.958389867442975,-0.0115885521681775,0.1773578098876121,110.23964265758995,110.23964265758995,0.0,0.0,5963.0,-106.2212862,39.9589671,2018-06-19 20:11:28+00:00,2521.383,0.66,1.09,7.59,8.0,-0.05,0.11,0.07,GPS_Atti,1.0,0.0,0.0,0.0,20.0,10.0,73.0,14.0,False,0.031999998,0.0,0.0,0.031999998,0.0,0.031999998,0.0019999999,0.98857623,0.0019999999,0.0019999999
514.187,-106.22128650096342,39.95896920265548,,-7.836405484319732,6.712266482818656,41.260762206618885,0.09874191,0.12036705,-0.95277524,0.96541125,-2.8249664,1.7470106,7.153709,0.16453207,-0.046750028,0.01908134,0.17210595,1517.0,65.03,10.264373378194868,0.0472458328059417,0.2376980385890306,0.0034536186093419,-0.0699131372982769,0.0279182191663791,0.0639254599933336,False,3.7185118110701296,-0.7177609353641401,-15.214950547744593,0.4184641097079897,-15.0236944345736,-15.0236944345736,0.0,0.0,6883.0,-106.2212862,39.9589671,2018-06-19 20:11:28+00:00,2521.383,0.66,1.09,7.59,8.0,-0.05,0.11,0.07,GPS_Atti,1.0,0.0,0.0,0.0,20.0,10.0,73.0,14.0,False,0.031999998,0.0,0.0,0.031999998,0.0,0.031999998,0.0019999999,0.98857623,0.0019999999,0.0019999999
514.272,-106.22128650096342,39.95896920265548,,-7.836405484319732,6.712266482818656,41.260762206618885,0.09874191,0.12036705,-0.95277524,0.96541125,-2.8249664,1.7470106,7.153709,0.16453207,-0.046750028,0.01908134,0.17210595,1517.0,65.03,10.264373378194868,0.0472458328059417,0.2376980385890306,0.0034536186093419,-0.0699131372982769,0.0279182191663791,0.0639254599933336,False,3.7185118110701296,-0.7177609353641401,-15.214950547744593,0.4184641097079897,-15.0236944345736,-15.0236944345736,0.0,0.0,6883.0,-106.2212862,39.9589671,2018-06-19 20:11:28+00:00,2521.383,0.66,1.09,7.59,8.0,-0.05,0.11,0.07,GPS_Atti,1.0,0.0,0.0,0.0,20.0,10.0,73.0,14.0,False,0.031999998,0.0,0.0,0.031999998,0.0,0.031999998,0.0019999999,0.98857623,0.0019999999,0.0019999999
514.313,-106.2212866765093,39.9589694921798,,-7.071463700428058,6.292194242050885,41.17064309424938,0.12279221,0.13638599,-1.0406381,1.056696,6.7700925,-0.5511556,7.810423,0.18950722,-0.059225723,0.02389276,0.19997884,1523.0,65.01,9.423569213239864,0.0649434751177011,0.2324005446966452,0.0056017989990095,-0.09488828812187,0.0403939146274138,0.0591140389566133,False,3.7782899613248446,-0.5205527908076419,-15.338938700517248,0.4539647051361816,-24.926694948815378,-24.926694948815378,0.0,0.0,6923.0,-106.2212862,39.9589671,2018-06-19 20:11:28+00:00,2521.383,0.66,1.09,7.59,8.0,-0.05,0.11,0.07,GPS_Atti,1.0,0.0,0.0,0.0,20.0,10.0,73.0,14.0,False,0.031999998,0.0,0.0,0.031999998,0.0,0.031999998,0.0019999999,0.98857623,0.0019999999,0.0019999999
514.354,-106.2212866765093,39.9589694921798,,-7.071463700428058,6.292194242050885,41.17064309424938,0.12279221,0.13638599,-1.0406381,1.056696,6.7700925,-0.5511556,7.810423,0.18950722,-0.059225723,0.02389276,0.19997884,1523.0,65.01,9.423569213239864,0.0649434751177011,0.2324005446966452,0.0056017989990095,-0.09488828812187,0.0403939146274138,0.0591140389566133,False,3.7782899613248446,-0.5205527908076419,-15.338938700517248,0.4539647051361816,-24.926694948815378,-24.926694948815378,0.0,0.0,6923.0,-106.2212867,39.9589693,2018-06-19 20:11:30+00:00,2521.086,0.69,1.15,7.59,8.0,0.18,-0.08,0.08,GPS_Atti,1.0,0.0,0.0,0.0,20.0,10.0,73.0,14.0,False,0.031999998,0.0,0.0,0.031999998,0.0,0.031999998,0.0019999999,0.98903555,0.0019999999,0.0019999999
514.387,-106.22128673907656,39.95896967539929,,-6.482289621808443,6.812623256625514,41.11608054892791,0.11793972,0.13597077,-1.0093426,1.0252659,3.7865057,-0.19655693,8.910269,0.1847386,-0.05540077,-0.010993823,0.19317986,1500.0,65.02,9.362157217685168,0.0836511978087344,0.2266706192805827,0.0062465883846698,-0.0901196781212597,0.0365689616375972,0.0940006226424883,False,3.740913461047967,0.0071482537930478,-14.74314539162333,0.4750241439625996,-14.668211476404844,-14.668211476404844,0.0,0.0,6963.0,-106.2212867,39.9589693,2018-06-19 20:11:30+00:00,2521.086,0.69,1.15,7.59,8.0,0.18,-0.08,0.08,GPS_Atti,1.0,0.0,0.0,0.0,20.0,10.0,73.0,14.0,False,0.031999998,0.0,0.0,0.031999998,0.0,0.031999998,0.0019999999,0.98903555,0.0019999999,0.0019999999
514.472,-106.22128673907656,39.95896967539929,,-6.482289621808443,6.812623256625514,41.11608054892791,0.11793972,0.13597077,-1.0093426,1.0252659,3.7865057,-0.19655693,8.910269,0.1847386,-0.05540077,-0.010993823,0.19317986,1500.0,65.02,9.362157217685168,0.0836511978087344,0.2266706192805827,0.0062465883846698,-0.0901196781212597,0.0365689616375972,0.0940006226424883,False,3.740913461047967,0.0071482537930478,-14.74314539162333,0.4750241439625996,-14.668211476404844,-14.668211476404844,0.0,0.0,6963.0,-106.2212867,39.9589693,2018-06-19 20:11:30+00:00,2521.086,0.69,1.15,7.59,8.0,0.18,-0.08,0.08,GPS_Atti,1.0,0.0,0.0,0.0,20.0,10.0,73.0,14.0,False,0.031999998,0.0,0.0,0.031999998,0.0,0.031999998,0.0019999999,0.98903555,0.0019999999,0.0019999999
514.513,-106.22128682559814,39.9589698490305,,-6.190354459677121,6.329642778844105,40.9769661173196,0.14077179,0.1405146,-1.0692276,1.0875701,0.5147666,0.9847756,3.7221303,0.1752839,-0.057156295,-0.00622819,0.18447243,1509.0,65.01,8.81863980776848,0.1016589150254674,0.2210407050620801,0.0053851723739626,-0.0806649658495693,0.0383244860642959,0.0892349891488264,False,3.780338827615197,0.2222906260938089,-14.517517948575914,0.4956914591347172,-20.90457164616582,-20.90457164616582,0.0,0.0,7003.0,-106.2212867,39.9589693,2018-06-19 20:11:30+00:00,2521.086,0.69,1.15,7.59,8.0,0.18,-0.08,0.08,GPS_Atti,1.0,0.0,0.0,0.0,20.0,10.0,73.0,14.0,False,0.031999998,0.0,0.0,0.031999998,0.0,0.031999998,0.0019999999,0.98903555,0.0019999999,0.0019999999
514.554,-106.22128682559814,39.9589698490305,,-6.190354459677121,6.329642778844105,40.9769661173196,0.14077179,0.1405146,-1.0692276,1.0875701,0.5147666,0.9847756,3.7221303,0.1752839,-0.057156295,-0.00622819,0.18447243,1509.0,65.01,8.81863980776848,0.1016589150254674,0.2210407050620801,0.0053851723739626,-0.0806649658495693,0.0383244860642959,0.0892349891488264,False,3.780338827615197,0.2222906260938089,-14.517517948575914,0.4956914591347172,-20.90457164616582,-20.90457164616582,0.0,0.0,7003.0,-106.2212869,39.9589696,2018-06-19 20:11:31+00:00,2521.09,0.69,1.15,7.59,8.0,0.17,-0.07,0.05,GPS_Atti,1.0,0.0,0.0,0.0,20.0,10.0,73.0,14.0,False,0.031999998,0.0,0.0,0.031999998,0.0,0.031999998,0.0019999999,0.989536,0.0019999999,0.0019999999
514.587,-106.22128688959552,39.958970008904615,,-6.114536770082356,6.862630744230422,40.898736288023294,0.120824285,0.14403743,-0.9951315,1.0127349,-11.372959,-1.2286296,11.734546,0.17166416,-0.035385624,-0.034461133,0.17862894,1500.0,65.0,9.152971243492145,0.1190020826903435,0.2164147388162405,0.0033512029149278,0.0524833918677456,-0.0474311239236636,0.1461656959777149,False,3.7681491050352633,-0.3204864557631026,-14.564303381872378,0.5142866476336456,-17.057618935202562,-17.057618935202562,0.0,0.0,7043.0,-106.2212869,39.9589696,2018-06-19 20:11:31+00:00,2521.09,0.69,1.15,7.59,8.0,0.17,-0.07,0.05,GPS_Atti,1.0,0.0,0.0,0.0,20.0,10.0,73.0,14.0,False,0.031999998,0.0,0.0,0.031999998,0.0,0.031999998,0.0019999999,0.989536,0.0019999999,0.0019999999
514.633,-106.22128688959552,39.958970008904615,,-6.114536770082356,6.862630744230422,40.898736288023294,0.120824285,0.14403743,-0.9951315,1.0127349,-11.372959,-1.2286296,11.734546,0.17166416,-0.035385624,-0.034461133,0.17862894,1500.0,65.0,9.152971243492145,0.1190020826903435,0.2164147388162405,0.0033512029149278,0.0524833918677456,-0.0474311239236636,0.1461656959777149,False,3.7681491050352633,-0.3204864557631026,-14.564303381872378,0.5142866476336456,-17.057618935202562,-17.057618935202562,0.0,0.0,7043.0,-106.2212869,39.9589696,2018-06-19 20:11:31+00:00,2521.09,0.69,1.15,7.59,8.0,0.17,-0.07,0.05,GPS_Atti,1.0,0.0,0.0,0.0,20.0,10.0,73.0,14.0,False,0.031999998,0.0,0.0,0.031999998,0.0,0.031999998,0.0019999999,0.989536,0.0019999999,0.0019999999
514.672,-106.22128688959552,39.958970008904615,,-6.114536770082356,6.862630744230422,40.898736288023294,0.120824285,0.14403743,-0.9951315,1.0127349,-11.372959,-1.2286296,11.734546,0.17166416,-0.035385624,-0.034461133,0.17862894,1500.0,65.0,9.152971243492145,0.1190020826903435,0.2164147388162405,0.0033512029149278,0.0524833918677456,-0.0474311239236636,0.1461656959777149,False,3.7681491050352633,-0.3204864557631026,-14.564303381872378,0.5142866476336456,-17.057618935202562,-17.057618935202562,0.0,0.0,7043.0,-106.2212869,39.9589696,2018-06-19 20:11:31+00:00,2521.09,0.69,1.15,7.59,8.0,0.17,-0.07,0.05,GPS_Atti,1.0,0.0,0.0,0.0,20.0,10.0,73.0,14.0,False,0.031999998,0.0,0.0,0.031999998,0.0,0.031999998,0.0019999999,0.989536,0.0019999999,0.0019999999
514.713,-106.22128693857675,39.95897016085799,,-6.183148427605616,6.433895113137799,40.778459506377395,0.13770267,0.1392873,-1.0318409,1.050266,7.947242,1.700096,8.197913,0.16764249,-0.010533139,-0.054681715,0.17664948,1511.0,65.06,8.887687862707038,0.1359736282080064,0.2141179598843905,-0.0011075717296762,0.0565050662623531,-0.072283608388309,0.1663862774198325,False,3.7917310589473345,-0.4918350502123303,-14.379635628692997,0.5316911944692138,-13.878566018227913,-13.878566018227913,0.0,0.0,7083.0,-106.2212869,39.9589696,2018-06-19 20:11:31+00:00,2521.09,0.69,1.15,7.59,8.0,0.17,-0.07,0.05,GPS_Atti,1.0,0.0,0.0,0.0,20.0,10.0,73.0,14.0,False,0.031999998,0.0,0.0,0.031999998,0.0,0.031999998,0.0019999999,0.989536,0.0019999999,0.0019999999
514.751,-106.22128693857675,39.95897016085799,,-6.183148427605616,6.433895113137799,40.778459506377395,0.13770267,0.1392873,-1.0318409,1.050266,7.947242,1.700096,8.197913,0.16764249,-0.010533139,-0.054681715,0.17664948,1511.0,65.06,8.887687862707038,0.1359736282080064,0.2141179598843905,-0.0011075717296762,0.0565050662623531,-0.072283608388309,0.1663862774198325,False,3.7917310589473345,-0.4918350502123303,-14.379635628692997,0.5316911944692138,-13.878566018227913,-13.878566018227913,0.0,0.0,7083.0,-106.221287,39.9589699,2018-06-19 20:11:31+00:00,2521.101,0.69,1.15,7.59,8.0,0.17,-0.07,0.02,GPS_Atti,1.0,0.0,0.0,0.0,20.0,10.0,73.0,14.0,False,0.031999998,0.0,0.0,0.031999998,0.0,0.031999998,0.0019999999,0.98965746,0.0019999999,0.0019999999
514.787,-106.22128702509836,39.958970292801034,,-5.99885410624855,7.139224261541995,40.77030957805175,0.1388342,0.14258899,-1.0000238,1.0196344,-7.4734335,-0.1262323,9.321831,0.17101616,0.017590947,-0.08253558,0.19070418,1519.0,64.98,9.285430837878687,0.1529024264787892,0.2144707641464833,-0.0079667614351137,0.0531313986645824,-0.1004076949471278,0.1942401425962718,False,3.870405032490453,-0.4681504195762045,-14.047423685567992,0.5481116408719331,-26.685704622136065,-26.685704622136065,0.0,0.0,7123.0,-106.221287,39.9589699,2018-06-19 20:11:31+00:00,2521.101,0.69,1.15,7.59,8.0,0.17,-0.07,0.02,GPS_Atti,1.0,0.0,0.0,0.0,20.0,10.0,73.0,14.0,False,0.031999998,0.0,0.0,0.031999998,0.0,0.031999998,0.0019999999,0.98965746,0.0019999999,0.0019999999
514.874,-106.22128702509836,39.958970292801034,,-5.99885410624855,7.139224261541995,40.77030957805175,0.1388342,0.14258899,-1.0000238,1.0196344,-7.4734335,-0.1262323,9.321831,0.17101616,0.017590947,-0.08253558,0.19070418,1519.0,64.98,9.285430837878687,0.1529024264787892,0.2144707641464833,-0.0079667614351137,0.0531313986645824,-0.1004076949471278,0.1942401425962718,False,3.870405032490453,-0.4681504195762045,-14.047423685567992,0.5481116408719331,-26.685704622136065,-26.685704622136065,0.0,0.0,7123.0,-106.221287,39.9589699,2018-06-19 20:11:31+00:00,2521.101,0.69,1.15,7.59,8.0,0.17,-0.07,0.02,GPS_Atti,1.0,0.0,0.0,0.0,20.0,10.0,73.0,14.0,False,0.031999998,0.0,0.0,0.031999998,0.0,0.031999998,0.0019999999,0.98965746,0.0019999999,0.0019999999
514.913,-106.2212870179478,39.95897043599988,,-5.860099125111593,8.045410270050713,40.84053198702282,0.12979294,0.15008996,-0.9955743,1.0151559,-6.1063643,2.204583,9.3409395,0.16143037,0.028509274,-0.06114462,0.17496058,1508.0,65.02,9.908559361995156,0.1695206948166685,0.2167752124783533,-0.0151490175254593,0.0627171815501339,-0.1113260216230197,0.1728491829757961,False,3.9742971936684626,-1.1469745377983145,-13.433255652360458,0.5640462857292173,2.1919227668217975,2.1919227668217975,0.0,0.0,7163.0,-106.221287,39.9589699,2018-06-19 20:11:31+00:00,2521.101,0.69,1.15,7.59,8.0,0.17,-0.07,0.02,GPS_Atti,1.0,0.0,0.0,0.0,20.0,10.0,73.0,14.0,False,0.031999998,0.0,0.0,0.031999998,0.0,0.031999998,0.0019999999,0.98965746,0.0019999999,0.0019999999
514.954,-106.2212870179478,39.95897043599988,,-5.860099125111593,8.045410270050713,40.84053198702282,0.12979294,0.15008996,-0.9955743,1.0151559,-6.1063643,2.204583,9.3409395,0.16143037,0.028509274,-0.06114462,0.17496058,1508.0,65.02,9.908559361995156,0.1695206948166685,0.2167752124783533,-0.0151490175254593,0.0627171815501339,-0.1113260216230197,0.1728491829757961,False,3.9742971936684626,-1.1469745377983145,-13.433255652360458,0.5640462857292173,2.1919227668217975,2.1919227668217975,0.0,0.0,7163.0,-106.2212871,39.9589703,2018-06-19 20:11:31+00:00,2521.118,0.69,1.15,7.6,8.0,0.2,-0.04,-0.01,GPS_Atti,1.0,0.0,0.0,0.0,20.0,10.0,73.0,14.0,False,0.031999998,0.0,0.0,0.031999998,0.0,0.031999998,0.0019999999,0.98869425,0.0019999999,0.0019999999
514.987,-106.22128699399347,39.95897055668712,,-6.226139173885631,8.232494263031093,40.90813342823739,0.11974097,0.13976821,-0.96905243,0.98637503,1.9392074,1.320403,4.2276216,0.14539137,0.040016986,-0.028842786,0.15353148,1511.0,65.06,10.27074350036264,0.1848674003213943,0.2202027802593988,-0.0196500355694411,0.0068759202938964,-0.0622605899761301,0.0422697011881579,False,4.15061103356129,-1.3554086814949642,-13.273241215591042,0.5776205132046466,8.650521546492907,8.650521546492907,0.0,0.0,7203.0,-106.2212871,39.9589703,2018-06-19 20:11:31+00:00,2521.118,0.69,1.15,7.6,8.0,0.2,-0.04,-0.01,GPS_Atti,1.0,0.0,0.0,0.0,20.0,10.0,73.0,14.0,False,0.031999998,0.0,0.0,0.031999998,0.0,0.031999998,0.0019999999,0.98869425,0.0019999999,0.0019999999
515.053,-106.22128699399347,39.95897055668712,,-6.226139173885631,8.232494263031093,40.90813342823739,0.11974097,0.13976821,-0.96905243,0.98637503,1.9392074,1.320403,4.2276216,0.14539137,0.040016986,-0.028842786,0.15353148,1511.0,65.06,10.27074350036264,0.1848674003213943,0.2202027802593988,-0.0196500355694411,0.0068759202938964,-0.0622605899761301,0.0422697011881579,False,4.15061103356129,-1.3554086814949642,-13.273241215591042,0.5776205132046466,8.650521546492907,8.650521546492907,0.0,0.0,7203.0,-106.2212871,39.9589703,2018-06-19 20:11:31+00:00,2521.118,0.69,1.15,7.6,8.0,0.2,-0.04,-0.01,GPS_Atti,1.0,0.0,0.0,0.0,20.0,10.0,73.0,14.0,False,0.031999998,0.0,0.0,0.031999998,0.0,0.031999998,0.0019999999,0.98869425,0.0019999999,0.0019999999
515.087,-106.22128691891275,39.958970672163346,,-6.012959523814874,8.192273493246816,40.959748896577985,0.123237126,0.11522253,-1.0098478,1.0238438,3.629181,-1.8054461,9.148021,0.1438074,0.041835763,-0.06437286,0.16301738,1513.0,65.06,10.114258962822836,0.199332634265005,0.224296916477499,-0.0243125247100124,0.0084598988276412,-0.0640793661068064,0.0777997747563828,False,4.126349993752228,-1.076887304116326,-13.859350146596626,0.5919671268458059,26.490222335842283,26.490222335842283,0.0,0.0,7243.0,-106.2212871,39.9589703,2018-06-19 20:11:31+00:00,2521.118,0.69,1.15,7.6,8.0,0.2,-0.04,-0.01,GPS_Atti,1.0,0.0,0.0,0.0,20.0,10.0,73.0,14.0,False,0.031999998,0.0,0.0,0.031999998,0.0,0.031999998,0.0019999999,0.98869425,0.0019999999,0.0019999999
515.124,-106.22128691891275,39.958970672163346,,-6.012959523814874,8.192273493246816,40.959748896577985,0.123237126,0.11522253,-1.0098478,1.0238438,3.629181,-1.8054461,9.148021,0.1438074,0.041835763,-0.06437286,0.16301738,1513.0,65.06,10.114258962822836,0.199332634265005,0.224296916477499,-0.0243125247100124,0.0084598988276412,-0.0640793661068064,0.0777997747563828,False,4.126349993752228,-1.076887304116326,-13.859350146596626,0.5919671268458059,26.490222335842283,26.490222335842283,0.0,0.0,7243.0,-106.2212871,39.9589705,2018-06-19 20:11:31+00:00,2521.125,0.69,1.15,7.6,8.0,0.17,0.0,-0.02,GPS_Atti,1.0,0.0,0.0,0.0,20.0,10.0,73.0,14.0,False,0.031999998,0.0,0.0,0.031999998,0.0,0.031999998,0.0019999999,0.98869425,0.0019999999,0.0019999999
515.174,-106.22128691891275,39.958970672163346,,-6.012959523814874,8.192273493246816,40.959748896577985,0.123237126,0.11522253,-1.0098478,1.0238438,3.629181,-1.8054461,9.148021,0.1438074,0.041835763,-0.06437286,0.16301738,1513.0,65.06,10.114258962822836,0.199332634265005,0.224296916477499,-0.0243125247100124,0.0084598988276412,-0.0640793661068064,0.0777997747563828,False,4.126349993752228,-1.076887304116326,-13.859350146596626,0.5919671268458059,26.490222335842283,26.490222335842283,0.0,0.0,7243.0,-106.2212871,39.9589705,2018-06-19 20:11:31+00:00,2521.125,0.69,1.15,7.6,8.0,0.17,0.0,-0.02,GPS_Atti,1.0,0.0,0.0,0.0,20.0,10.0,73.0,14.0,False,0.031999998,0.0,0.0,0.031999998,0.0,0.031999998,0.0019999999,0.9886691,0.0019999999,0.0019999999
515.213,-106.2212868391842,39.9589707515793,,-6.124639341121413,8.020146204625277,40.96213915261635,0.14723817,0.10228283,-1.0262532,1.0417949,4.2018104,-2.2374964,5.197166,0.1261552,0.04615623,-0.08749828,0.16031681,1509.0,65.02,10.043328067767284,0.2128192299142881,0.2286927567476482,-0.0318995929410448,0.0261120974999358,-0.0683998348603827,0.1009251922869194,False,3.924375600694475,-0.6856723167513792,-14.164866268883998,0.6031097287793401,37.57906499815132,37.57906499815132,0.0,0.0,7283.0,-106.2212871,39.9589705,2018-06-19 20:11:31+00:00,2521.125,0.69,1.15,7.6,8.0,0.17,0.0,-0.02,GPS_Atti,1.0,0.0,0.0,0.0,20.0,10.0,73.0,14.0,False,0.031999998,0.0,0.0,0.031999998,0.0,0.031999998,0.0019999999,0.9886691,0.0019999999,0.0019999999
515.253,-106.2212868391842,39.9589707515793,,-6.124639341121413,8.020146204625277,40.96213915261635,0.14723817,0.10228283,-1.0262532,1.0417949,4.2018104,-2.2374964,5.197166,0.1261552,0.04615623,-0.08749828,0.16031681,1509.0,65.02,10.043328067767284,0.2128192299142881,0.2286927567476482,-0.0318995929410448,0.0261120974999358,-0.0683998348603827,0.1009251922869194,False,3.924375600694475,-0.6856723167513792,-14.164866268883998,0.6031097287793401,37.57906499815132,37.57906499815132,0.0,0.0,7283.0,-106.2212871,39.9589705,2018-06-19 20:11:31+00:00,2521.125,0.69,1.15,7.6,8.0,0.17,0.0,-0.02,GPS_Atti,1.0,0.0,0.0,0.0,20.0,10.0,73.0,14.0,False,0.031999998,0.0,0.0,0.031999998,0.0,0.031999998,0.0019999999,0.9886691,0.0019999999,0.0019999999
515.287,-106.22128677733195,39.9589708914431,,-6.10623875499777,8.05508336310812,40.81037956434034,0.11640099,0.13796511,-1.0059855,1.022052,-12.617078,-1.1199632,14.637887,0.0893756,0.050664414,-0.09989287,0.14329502,1515.0,65.04,10.059943690830334,0.2235997162930232,0.2335355618383232,-0.0412725815263002,0.0628916949015548,-0.0729080172668082,0.1133197844528664,False,3.756441146517318,-1.1065897782757474,-14.427511960779157,0.619531074048808,18.72525570728695,18.72525570728695,0.0,0.0,7323.0,-106.2212871,39.9589705,2018-06-19 20:11:31+00:00,2521.125,0.69,1.15,7.6,8.0,0.17,0.0,-0.02,GPS_Atti,1.0,0.0,0.0,0.0,20.0,10.0,73.0,14.0,False,0.031999998,0.0,0.0,0.031999998,0.0,0.031999998,0.0019999999,0.9886691,0.0019999999,0.0019999999
515.328,-106.22128677733195,39.9589708914431,,-6.10623875499777,8.05508336310812,40.81037956434034,0.11640099,0.13796511,-1.0059855,1.022052,-12.617078,-1.1199632,14.637887,0.0893756,0.050664414,-0.09989287,0.14329502,1515.0,65.04,10.059943690830334,0.2235997162930232,0.2335355618383232,-0.0412725815263002,0.0628916949015548,-0.0729080172668082,0.1133197844528664,False,3.756441146517318,-1.1065897782757474,-14.427511960779157,0.619531074048808,18.72525570728695,18.72525570728695,0.0,0.0,7323.0,-106.2212871,39.9589708,2018-06-19 20:11:31+00:00,2521.14,0.69,1.15,7.61,8.0,0.13,0.02,-0.04,GPS_Atti,1.0,0.0,0.0,0.0,20.0,10.0,73.0,14.0,False,0.031999998,0.0,0.0,0.031999998,0.0,0.031999998,0.0019999999,0.9886691,0.0019999999,0.0019999999
515.374,-106.22128677733195,39.9589708914431,,-6.10623875499777,8.05508336310812,40.81037956434034,0.11640099,0.13796511,-1.0059855,1.022052,-12.617078,-1.1199632,14.637887,0.0893756,0.050664414,-0.09989287,0.14329502,1515.0,65.04,10.059943690830334,0.2235997162930232,0.2335355618383232,-0.0412725815263002,0.0628916949015548,-0.0729080172668082,0.1133197844528664,False,3.756441146517318,-1.1065897782757474,-14.427511960779157,0.619531074048808,18.72525570728695,18.72525570728695,0.0,0.0,7323.0,-106.2212871,39.9589708,2018-06-19 20:11:31+00:00,2521.14,0.69,1.15,7.61,8.0,0.13,0.02,-0.04,GPS_Atti,1.0,0.0,0.0,0.0,20.0,10.0,73.0,14.0,False,0.031999998,0.0,0.0,0.031999998,0.0,0.031999998,0.0019999999,0.9885819,0.0019999999,0.0019999999
515.413,-106.2212867172674,39.95897100420959,,-7.409158018132269,7.979183537130455,40.965901190508205,0.11001914,0.11168897,-0.93574935,0.9487916,-7.80615,2.2957788,8.643489,0.08415949,0.04589232,-0.058972664,0.11254644,1510.0,65.0,10.8244066002169,0.232274352627968,0.2383622198819353,-0.0492139189382214,0.0402574665615909,0.0130774650601701,0.0058672162909535,False,3.8152175724135304,-2.127501860646817,-14.648475743526433,0.6330749362673753,22.208978304813417,22.208978304813417,0.0,0.0,7363.0,-106.2212871,39.9589708,2018-06-19 20:11:31+00:00,2521.14,0.69,1.15,7.61,8.0,0.13,0.02,-0.04,GPS_Atti,1.0,0.0,0.0,0.0,20.0,10.0,73.0,14.0,False,0.031999998,0.0,0.0,0.031999998,0.0,0.031999998,0.0019999999,0.9885819,0.0019999999,0.0019999999
515.472,-106.2212867172674,39.95897100420959,,-7.409158018132269,7.979183537130455,40.965901190508205,0.11001914,0.11168897,-0.93574935,0.9487916,-7.80615,2.2957788,8.643489,0.08415949,0.04589232,-0.058972664,0.11254644,1510.0,65.0,10.8244066002169,0.232274352627968,0.2383622198819353,-0.0492139189382214,0.0402574665615909,0.0130774650601701,0.0058672162909535,False,3.8152175724135304,-2.127501860646817,-14.648475743526433,0.6330749362673753,22.208978304813417,22.208978304813417,0.0,0.0,7363.0,-106.2212871,39.9589708,2018-06-19 20:11:31+00:00,2521.14,0.69,1.15,7.61,8.0,0.13,0.02,-0.04,GPS_Atti,1.0,0.0,0.0,0.0,20.0,10.0,73.0,14.0,False,0.031999998,0.0,0.0,0.031999998,0.0,0.031999998,0.0019999999,0.9885819,0.0019999999,0.0019999999
515.513,-106.2212866818722,39.95897104443867,,-6.986379068343235,8.062284653083047,41.01592963894655,0.13219069,0.09398117,-1.0285707,1.0412802,1.1699414,-1.6660798,4.133852,0.07667893,0.015098075,-0.0568465,0.0966392,1515.0,65.04,10.608607595558183,0.2403192189254639,0.2414128564472264,-0.0550069978314695,0.0477380282948367,0.0438717102510886,0.0037410515565899,False,3.846714052135212,-2.459433799966291,-14.682575860877478,0.6384704084203578,33.995814152928446,33.995814152928446,0.0,0.0,7403.0,-106.2212871,39.9589708,2018-06-19 20:11:31+00:00,2521.14,0.69,1.15,7.61,8.0,0.13,0.02,-0.04,GPS_Atti,1.0,0.0,0.0,0.0,20.0,10.0,73.0,14.0,False,0.031999998,0.0,0.0,0.031999998,0.0,0.031999998,0.0019999999,0.9885819,0.0019999999,0.0019999999
515.554,-106.2212866818722,39.95897104443867,,-6.986379068343235,8.062284653083047,41.01592963894655,0.13219069,0.09398117,-1.0285707,1.0412802,1.1699414,-1.6660798,4.133852,0.07667893,0.015098075,-0.0568465,0.0966392,1515.0,65.04,10.608607595558183,0.2403192189254639,0.2414128564472264,-0.0550069978314695,0.0477380282948367,0.0438717102510886,0.0037410515565899,False,3.846714052135212,-2.459433799966291,-14.682575860877478,0.6384704084203578,33.995814152928446,33.995814152928446,0.0,0.0,7403.0,-106.221287,39.9589709,2018-06-19 20:11:32+00:00,2521.184,0.66,1.09,7.59,8.0,0.1,0.03,-0.08,GPS_Atti,1.0,0.0,0.0,0.0,20.0,10.0,73.0,14.0,False,0.031999998,0.0,0.0,0.031999998,0.0,0.031999998,0.0019999999,0.9886622,0.0019999999,0.0019999999
515.587,-106.22128673371364,39.95897108300022,,-6.462392355054074,7.448638594239998,40.90701581745137,0.16083181,0.12304802,-1.008564,1.0286928,-2.8828197,0.31543174,3.1587925,0.083387084,0.011206536,-0.067093514,0.107612886,1497.0,65.03,9.814117852275862,0.2483205657955238,0.2427277658962623,-0.0612024855593063,0.0410298757026545,0.0477632500110225,0.0139880660195378,False,3.7791981387508713,-2.5450568021699382,-14.925012939545924,0.6446274346398426,-45.85986959873395,-45.85986959873395,0.0,0.0,7443.0,-106.221287,39.9589709,2018-06-19 20:11:32+00:00,2521.184,0.66,1.09,7.59,8.0,0.1,0.03,-0.08,GPS_Atti,1.0,0.0,0.0,0.0,20.0,10.0,73.0,14.0,False,0.031999998,0.0,0.0,0.031999998,0.0,0.031999998,0.0019999999,0.9886622,0.0019999999,0.0019999999
515.674,-106.22128673371364,39.95897108300022,,-6.462392355054074,7.448638594239998,40.90701581745137,0.16083181,0.12304802,-1.008564,1.0286928,-2.8828197,0.31543174,3.1587925,0.083387084,0.011206536,-0.067093514,0.107612886,1497.0,65.03,9.814117852275862,0.2483205657955238,0.2427277658962623,-0.0612024855593063,0.0410298757026545,0.0477632500110225,0.0139880660195378,False,3.7791981387508713,-2.5450568021699382,-14.925012939545924,0.6446274346398426,-45.85986959873395,-45.85986959873395,0.0,0.0,7443.0,-106.221287,39.9589709,2018-06-19 20:11:32+00:00,2521.184,0.66,1.09,7.59,8.0,0.1,0.03,-0.08,GPS_Atti,1.0,0.0,0.0,0.0,20.0,10.0,73.0,14.0,False,0.031999998,0.0,0.0,0.031999998,0.0,0.031999998,0.0019999999,0.9886622,0.0019999999,0.0019999999
515.713,-106.22128674694216,39.95897117846612,,-6.906810212131468,7.64359885451919,40.94703489154711,0.14471908,0.13603586,-0.92986894,0.9508447,-11.835654,0.2168639,14.950304,0.103752814,0.019489326,-0.06793278,0.12553622,1519.0,65.01,10.247635599333366,0.2576809873563377,0.2442631210145407,-0.0679562725151754,-0.0391751827446302,-0.0279186947047651,0.0101622319480963,False,3.805822667589382,-3.2812500010406893,-14.53090676591637,0.6553024673028021,-6.062823116360966,-6.062823116360966,0.0,0.0,7483.0,-106.221287,39.9589709,2018-06-19 20:11:32+00:00,2521.184,0.66,1.09,7.59,8.0,0.1,0.03,-0.08,GPS_Atti,1.0,0.0,0.0,0.0,20.0,10.0,73.0,14.0,False,0.031999998,0.0,0.0,0.031999998,0.0,0.031999998,0.0019999999,0.9886622,0.0019999999,0.0019999999
515.751,-106.22128674694216,39.95897117846612,,-6.906810212131468,7.64359885451919,40.94703489154711,0.14471908,0.13603586,-0.92986894,0.9508447,-11.835654,0.2168639,14.950304,0.103752814,0.019489326,-0.06793278,0.12553622,1519.0,65.01,10.247635599333366,0.2576809873563377,0.2442631210145407,-0.0679562725151754,-0.0391751827446302,-0.0279186947047651,0.0101622319480963,False,3.805822667589382,-3.2812500010406893,-14.53090676591637,0.6553024673028021,-6.062823116360966,-6.062823116360966,0.0,0.0,7483.0,-106.2212871,39.958971,2018-06-19 20:11:32+00:00,2521.211,0.66,1.09,7.59,8.0,0.09,-0.02,-0.09,GPS_Atti,1.0,0.0,0.0,0.0,20.0,10.0,73.0,14.0,False,0.031999998,0.0,0.0,0.031999998,0.0,0.031999998,0.0019999999,0.988606,0.0019999999,0.0019999999
515.787,-106.2212867462271,39.95897127851772,,-5.880963529275321,7.771617270586101,41.06297952392995,0.17135301,0.16315168,-1.1179641,1.1427267,3.8672626,-0.28545204,7.4733667,0.115030624,0.026601154,-0.005472511,0.11819313,1524.0,65.01,9.702939766221878,0.2686108118296886,0.2465656758137981,-0.0716234007109051,-0.0504529924837431,-0.0350305234789789,-0.0522980341055802,False,3.8023961911094375,-3.679329137463583,-13.75557235406268,0.6664278644685075,0.3138733964860409,0.3138733964860409,0.0,0.0,7523.0,-106.2212871,39.958971,2018-06-19 20:11:32+00:00,2521.211,0.66,1.09,7.59,8.0,0.09,-0.02,-0.09,GPS_Atti,1.0,0.0,0.0,0.0,20.0,10.0,73.0,14.0,False,0.031999998,0.0,0.0,0.031999998,0.0,0.031999998,0.0019999999,0.988606,0.0019999999,0.0019999999
515.872,-106.2212867462271,39.95897127851772,,-5.880963529275321,7.771617270586101,41.06297952392995,0.17135301,0.16315168,-1.1179641,1.1427267,3.8672626,-0.28545204,7.4733667,0.115030624,0.026601154,-0.005472511,0.11819313,1524.0,65.01,9.702939766221878,0.2686108118296886,0.2465656758137981,-0.0716234007109051,-0.0504529924837431,-0.0350305234789789,-0.0522980341055802,False,3.8023961911094375,-3.679329137463583,-13.75557235406268,0.6664278644685075,0.3138733964860409,0.3138733964860409,0.0,0.0,7523.0,-106.2212871,39.958971,2018-06-19 20:11:32+00:00,2521.211,0.66,1.09,7.59,8.0,0.09,-0.02,-0.09,GPS_Atti,1.0,0.0,0.0,0.0,20.0,10.0,73.0,14.0,False,0.031999998,0.0,0.0,0.031999998,0.0,0.031999998,0.0019999999,0.988606,0.0019999999,0.0019999999
515.913,-106.22128670439642,39.95897133979933,,-5.770301605444785,8.720357549388229,41.054614443304416,0.1421011,0.14001237,-0.96804297,0.98838425,0.97865194,1.1279194,3.6486685,0.10986449,0.015505892,-0.0075177215,0.111207716,1510.0,65.04,10.408118179458755,0.2798665486471634,0.2486730841510223,-0.0722735466274571,-0.0452868567553839,-0.0239352613463938,-0.0502528236546925,False,3.8445606970853983,-3.436796793408803,-13.602448096722584,0.6741184203028643,27.61920619000078,27.61920619000078,0.0,0.0,7563.0,-106.2212871,39.958971,2018-06-19 20:11:32+00:00,2521.211,0.66,1.09,7.59,8.0,0.09,-0.02,-0.09,GPS_Atti,1.0,0.0,0.0,0.0,20.0,10.0,73.0,14.0,False,0.031999998,0.0,0.0,0.031999998,0.0,0.031999998,0.0019999999,0.988606,0.0019999999,0.0019999999
515.954,-106.22128670439642,39.95897133979933,,-5.770301605444785,8.720357549388229,41.054614443304416,0.1421011,0.14001237,-0.96804297,0.98838425,0.97865194,1.1279194,3.6486685,0.10986449,0.015505892,-0.0075177215,0.111207716,1510.0,65.04,10.408118179458755,0.2798665486471634,0.2486730841510223,-0.0722735466274571,-0.0452868567553839,-0.0239352613463938,-0.0502528236546925,False,3.8445606970853983,-3.436796793408803,-13.602448096722584,0.6741184203028643,27.61920619000078,27.61920619000078,0.0,0.0,7563.0,-106.2212871,39.9589712,2018-06-19 20:11:32+00:00,2521.222,0.66,1.09,7.58,8.0,0.11,-0.01,-0.07,GPS_Atti,1.0,0.0,0.0,0.0,20.0,10.0,73.0,14.0,False,0.031999998,0.0,0.0,0.031999998,0.0,0.031999998,0.0019999999,0.9886892,0.0019999999,0.0019999999
515.987,-106.2212866504098,39.958971389616686,,-6.1349888128114065,8.238949372397853,41.03072910260161,0.17145711,0.15202263,-1.0057758,1.0315491,-18.8782,-1.9673196,27.440823,0.10865065,0.05094573,-0.06622558,0.13706298,1526.0,65.01,10.222355985747582,0.2907896379934698,0.2519948540360985,-0.0759598115594144,-0.0440730156151136,-0.0593750981390417,0.0084550357124396,False,3.802600935057854,-4.3315557225689645,-12.77821778769976,0.6813196588411848,39.7148435964039,39.7148435964039,0.0,0.0,7603.0,-106.2212871,39.9589712,2018-06-19 20:11:32+00:00,2521.222,0.66,1.09,7.58,8.0,0.11,-0.01,-0.07,GPS_Atti,1.0,0.0,0.0,0.0,20.0,10.0,73.0,14.0,False,0.031999998,0.0,0.0,0.031999998,0.0,0.031999998,0.0019999999,0.9886892,0.0019999999,0.0019999999
516.074,-106.2212866504098,39.958971389616686,,-6.1349888128114065,8.238949372397853,41.03072910260161,0.17145711,0.15202263,-1.0057758,1.0315491,-18.8782,-1.9673196,27.440823,0.10865065,0.05094573,-0.06622558,0.13706298,1526.0,65.01,10.222355985747582,0.2907896379934698,0.2519948540360985,-0.0759598115594144,-0.0440730156151136,-0.0593750981390417,0.0084550357124396,False,3.802600935057854,-4.3315557225689645,-12.77821778769976,0.6813196588411848,39.7148435964039,39.7148435964039,0.0,0.0,7603.0,-106.2212871,39.9589712,2018-06-19 20:11:32+00:00,2521.222,0.66,1.09,7.58,8.0,0.11,-0.01,-0.07,GPS_Atti,1.0,0.0,0.0,0.0,20.0,10.0,73.0,14.0,False,0.031999998,0.0,0.0,0.031999998,0.0,0.031999998,0.0019999999,0.9886892,0.0019999999,0.0019999999
516.113,-106.22128674265184,39.95897141838152,,-7.087223476065969,9.752654932164535,41.3124544058967,0.13690105,0.10672495,-0.8585915,0.87596315,-0.07656173,2.9667099,3.2027178,0.10345742,0.063694485,0.05419363,0.13303149,1509.0,65.01,11.976780041696555,0.301405398241144,0.2577324623802326,-0.0765619965598034,-0.0367782278019085,-0.0627805005562857,0.0031671624730144,False,3.852619245633832,-5.280219360951605,-11.846634534003895,0.6898073080570455,-67.86178950365272,-67.86178950365272,0.0,0.0,7643.0,-106.2212871,39.9589712,2018-06-19 20:11:32+00:00,2521.222,0.66,1.09,7.58,8.0,0.11,-0.01,-0.07,GPS_Atti,1.0,0.0,0.0,0.0,20.0,10.0,73.0,14.0,False,0.031999998,0.0,0.0,0.031999998,0.0,0.031999998,0.0019999999,0.9886892,0.0019999999,0.0019999999
516.154,-106.22128674265184,39.95897141838152,,-7.087223476065969,9.752654932164535,41.3124544058967,0.13690105,0.10672495,-0.8585915,0.87596315,-0.07656173,2.9667099,3.2027178,0.10345742,0.063694485,0.05419363,0.13303149,1509.0,65.01,11.976780041696555,0.301405398241144,0.2577324623802326,-0.0765619965598034,-0.0367782278019085,-0.0627805005562857,0.0031671624730144,False,3.852619245633832,-5.280219360951605,-11.846634534003895,0.6898073080570455,-67.86178950365272,-67.86178950365272,0.0,0.0,7643.0,-106.2212872,39.9589713,2018-06-19 20:11:32+00:00,2521.246,0.66,1.09,7.58,8.0,0.09,0.0,-0.08,GPS_Atti,1.0,0.0,0.0,0.0,20.0,10.0,73.0,14.0,False,0.031999998,0.0,0.0,0.031999998,0.0,0.031999998,0.0019999999,0.9871236,0.0019999999,0.0019999999
516.187,-106.22128682559814,39.95897143839184,,-6.214945324079727,9.436064675216656,41.27178858384213,0.14416572,0.12238532,-0.9818938,0.99993867,15.967152,1.9137233,16.228888,0.081692785,0.058041558,0.09139666,0.13563143,1501.0,64.99,11.23805130922672,0.3106549980753641,0.2638140633654586,-0.0692887023267303,-0.0150135917621746,-0.0571275736940458,-0.0340358663250889,False,4.096432391121198,-4.486368784437673,-11.797749028921316,0.697218820530333,-72.52949251335282,-72.52949251335282,0.0,0.0,7683.0,-106.2212872,39.9589713,2018-06-19 20:11:32+00:00,2521.246,0.66,1.09,7.58,8.0,0.09,0.0,-0.08,GPS_Atti,1.0,0.0,0.0,0.0,20.0,10.0,73.0,14.0,False,0.031999998,0.0,0.0,0.031999998,0.0,0.031999998,0.0019999999,0.9871236,0.0019999999,0.0019999999
516.272,-106.22128682559814,39.95897143839184,,-6.214945324079727,9.436064675216656,41.27178858384213,0.14416572,0.12238532,-0.9818938,0.99993867,15.967152,1.9137233,16.228888,0.081692785,0.058041558,0.09139666,0.13563143,1501.0,64.99,11.23805130922672,0.3106549980753641,0.2638140633654586,-0.0692887023267303,-0.0150135917621746,-0.0571275736940458,-0.0340358663250889,False,4.096432391121198,-4.486368784437673,-11.797749028921316,0.697218820530333,-72.52949251335282,-72.52949251335282,0.0,0.0,7683.0,-106.2212872,39.9589713,2018-06-19 20:11:32+00:00,2521.246,0.66,1.09,7.58,8.0,0.09,0.0,-0.08,GPS_Atti,1.0,0.0,0.0,0.0,20.0,10.0,73.0,14.0,False,0.031999998,0.0,0.0,0.031999998,0.0,0.031999998,0.0019999999,0.9871236,0.0019999999,0.0019999999
516.313,-106.22128676410348,39.95897149196114,,-5.0660625870920475,9.532977334657517,41.135077279209256,0.1308536,0.1389528,-1.0579654,1.0750449,11.7483425,-0.06790758,12.205483,0.02690868,0.0644445,0.05263837,0.087452665,1498.0,65.01,10.752272020706286,0.3160903741723757,0.2699443468747233,-0.0620799178584547,0.039770512465845,-0.063530513252075,0.0047224227438484,False,4.1888133073607605,-3.099240781030403,-11.854086393288526,0.7051530806201789,41.34474497557594,41.34474497557594,0.0,0.0,7723.0,-106.2212872,39.9589713,2018-06-19 20:11:32+00:00,2521.246,0.66,1.09,7.58,8.0,0.09,0.0,-0.08,GPS_Atti,1.0,0.0,0.0,0.0,20.0,10.0,73.0,14.0,False,0.031999998,0.0,0.0,0.031999998,0.0,0.031999998,0.0019999999,0.9871236,0.0019999999,0.0019999999
516.354,-106.22128676410348,39.95897149196114,,-5.0660625870920475,9.532977334657517,41.135077279209256,0.1308536,0.1389528,-1.0579654,1.0750449,11.7483425,-0.06790758,12.205483,0.02690868,0.0644445,0.05263837,0.087452665,1498.0,65.01,10.752272020706286,0.3160903741723757,0.2699443468747233,-0.0620799178584547,0.039770512465845,-0.063530513252075,0.0047224227438484,False,4.1888133073607605,-3.099240781030403,-11.854086393288526,0.7051530806201789,41.34474497557594,41.34474497557594,0.0,0.0,7723.0,-106.2212871,39.9589714,2018-06-19 20:11:32+00:00,2521.238,0.66,1.09,7.58,8.0,0.06,0.05,-0.04,GPS_Atti,1.0,0.0,0.0,0.0,20.0,10.0,73.0,14.0,False,0.031999998,0.0,0.0,0.031999998,0.0,0.031999998,0.0019999999,0.9883913,0.0019999999,0.0019999999
516.387,-106.22128669903351,39.95897149529619,,-5.351363253550004,8.75706654143585,40.930139644271705,0.13421883,0.14110267,-1.0688144,1.086411,-7.2841234,-0.86447376,11.614142,-0.027674839,0.0766186,-0.048236027,0.09467323,1508.0,64.99,10.219833083821277,0.3160521223822741,0.276987169812088,-0.0618601231365119,0.0943540321630344,-0.0757046129358366,0.1055968206475292,False,4.14226253004108,-2.8763567955361395,-12.468835024659713,0.7107114702562993,86.1745360472302,86.1745360472302,0.0,0.0,7763.0,-106.2212871,39.9589714,2018-06-19 20:11:32+00:00,2521.238,0.66,1.09,7.58,8.0,0.06,0.05,-0.04,GPS_Atti,1.0,0.0,0.0,0.0,20.0,10.0,73.0,14.0,False,0.031999998,0.0,0.0,0.031999998,0.0,0.031999998,0.0019999999,0.9883913,0.0019999999,0.0019999999
516.472,-106.22128669903351,39.95897149529619,,-5.351363253550004,8.75706654143585,40.930139644271705,0.13421883,0.14110267,-1.0688144,1.086411,-7.2841234,-0.86447376,11.614142,-0.027674839,0.0766186,-0.048236027,0.09467323,1508.0,64.99,10.219833083821277,0.3160521223822741,0.276987169812088,-0.0618601231365119,0.0943540321630344,-0.0757046129358366,0.1055968206475292,False,4.14226253004108,-2.8763567955361395,-12.468835024659713,0.7107114702562993,86.1745360472302,86.1745360472302,0.0,0.0,7763.0,-106.2212871,39.9589714,2018-06-19 20:11:32+00:00,2521.238,0.66,1.09,7.58,8.0,0.06,0.05,-0.04,GPS_Atti,1.0,0.0,0.0,0.0,20.0,10.0,73.0,14.0,False,0.031999998,0.0,0.0,0.031999998,0.0,0.031999998,0.0019999999,0.9883913,0.0019999999,0.0019999999
516.513,-106.22128681487234,39.958971402540016,,-6.867500775404406,8.269349981537689,41.012992315075486,0.14047924,0.11426202,-1.0102819,1.0263819,-14.679835,-1.396118,16.23778,-0.080937915,0.085412234,-0.07618751,0.14018106,1523.0,64.98,10.68909364542998,0.3106161813526285,0.2850966230227243,-0.06808737518827,0.0765337743730321,-0.1008022842008177,-0.0776351703185626,False,4.029122559332791,-3.9756271914707217,-13.259757823574546,0.7249893260604398,-136.25120341475417,-136.25120341475417,0.0,0.0,7803.0,-106.2212871,39.9589714,2018-06-19 20:11:32+00:00,2521.238,0.66,1.09,7.58,8.0,0.06,0.05,-0.04,GPS_Atti,1.0,0.0,0.0,0.0,20.0,10.0,73.0,14.0,False,0.031999998,0.0,0.0,0.031999998,0.0,0.031999998,0.0019999999,0.9883913,0.0019999999,0.0019999999
516.554,-106.22128681487234,39.958971402540016,,-6.867500775404406,8.269349981537689,41.012992315075486,0.14047924,0.11426202,-1.0102819,1.0263819,-14.679835,-1.396118,16.23778,-0.080937915,0.085412234,-0.07618751,0.14018106,1523.0,64.98,10.68909364542998,0.3106161813526285,0.2850966230227243,-0.06808737518827,0.0765337743730321,-0.1008022842008177,-0.0776351703185626,False,4.029122559332791,-3.9756271914707217,-13.259757823574546,0.7249893260604398,-136.25120341475417,-136.25120341475417,0.0,0.0,7803.0,-106.2212871,39.9589714,2018-06-19 20:11:33+00:00,2521.254,0.66,1.09,7.58,8.0,0.0,0.03,-0.05,GPS_Atti,1.0,0.0,0.0,0.0,20.0,10.0,73.0,14.0,False,0.031999998,0.0,0.0,0.031999998,0.0,0.031999998,0.0019999999,0.9882918,0.0019999999,0.0019999999
516.587,-106.22128679127552,39.95897131541175,,-7.411835586887665,7.578049771636537,41.08056656656365,0.12935792,0.09416447,-1.0270915,1.0394794,0.95828855,0.450329,4.0027704,-0.081421934,0.07959261,-0.12307865,0.16766892,1521.0,64.99,10.540476614337354,0.3025051256828135,0.2933398153544715,-0.0780421695217228,0.0770177938909307,-0.0949826580483023,-0.030744024910409,False,3.98187351584329,-4.6611182822020965,-13.79223383720273,0.7348840980706287,168.27247252832026,168.27247252832026,0.0,0.0,7843.0,-106.2212871,39.9589714,2018-06-19 20:11:33+00:00,2521.254,0.66,1.09,7.58,8.0,0.0,0.03,-0.05,GPS_Atti,1.0,0.0,0.0,0.0,20.0,10.0,73.0,14.0,False,0.031999998,0.0,0.0,0.031999998,0.0,0.031999998,0.0019999999,0.9882918,0.0019999999,0.0019999999
516.672,-106.22128679127552,39.95897131541175,,-7.411835586887665,7.578049771636537,41.08056656656365,0.12935792,0.09416447,-1.0270915,1.0394794,0.95828855,0.450329,4.0027704,-0.081421934,0.07959261,-0.12307865,0.16766892,1521.0,64.99,10.540476614337354,0.3025051256828135,0.2933398153544715,-0.0780421695217228,0.0770177938909307,-0.0949826580483023,-0.030744024910409,False,3.98187351584329,-4.6611182822020965,-13.79223383720273,0.7348840980706287,168.27247252832026,168.27247252832026,0.0,0.0,7843.0,-106.2212871,39.9589714,2018-06-19 20:11:33+00:00,2521.254,0.66,1.09,7.58,8.0,0.0,0.03,-0.05,GPS_Atti,1.0,0.0,0.0,0.0,20.0,10.0,73.0,14.0,False,0.031999998,0.0,0.0,0.031999998,0.0,0.031999998,0.0019999999,0.9882918,0.0019999999,0.0019999999
516.713,-106.22128673621634,39.95897122932568,,-7.960537771911323,7.600629847181124,41.23238217724557,0.12384063,0.094655015,-0.98059887,0.99290997,-3.034195,-1.0252185,4.749116,-0.07408569,0.04336898,-0.17254351,0.19271953,1520.0,65.02,10.939784017099008,0.294726897045706,0.2994901462585915,-0.0928286906512312,0.0696815499038472,-0.0587590304214064,0.0187208341579846,False,3.953118515249116,-4.764951612979075,-13.809916580454228,0.7455448525871552,153.88390146913204,153.88390146913204,0.0,0.0,7883.0,-106.2212871,39.9589714,2018-06-19 20:11:33+00:00,2521.254,0.66,1.09,7.58,8.0,0.0,0.03,-0.05,GPS_Atti,1.0,0.0,0.0,0.0,20.0,10.0,73.0,14.0,False,0.031999998,0.0,0.0,0.031999998,0.0,0.031999998,0.0019999999,0.9882918,0.0019999999,0.0019999999
516.751,-106.22128673621634,39.95897122932568,,-7.960537771911323,7.600629847181124,41.23238217724557,0.12384063,0.094655015,-0.98059887,0.99290997,-3.034195,-1.0252185,4.749116,-0.07408569,0.04336898,-0.17254351,0.19271953,1520.0,65.02,10.939784017099008,0.294726897045706,0.2994901462585915,-0.0928286906512312,0.0696815499038472,-0.0587590304214064,0.0187208341579846,False,3.953118515249116,-4.764951612979075,-13.809916580454228,0.7455448525871552,153.88390146913204,153.88390146913204,0.0,0.0,7883.0,-106.2212869,39.9589713,2018-06-19 20:11:33+00:00,2521.294,0.66,1.09,7.58,8.0,-0.03,0.05,-0.1,GPS_Atti,1.0,0.0,0.0,0.0,20.0,10.0,73.0,14.0,False,0.031999998,0.0,0.0,0.031999998,0.0,0.031999998,0.0019999999,0.98775107,0.0019999999,0.0019999999
516.787,-106.22128670582651,39.95897116158242,,-7.82968140891894,7.474767729087737,41.19337484237499,0.1333634,0.09952604,-1.0071758,1.0208303,7.0220656,0.9628667,7.121778,-0.05719722,0.021783771,-0.14800616,0.16016203,1520.0,65.01,10.76143437708221,0.2881643540850689,0.3027469885010134,-0.1088522610355084,0.0527930804462209,-0.0371738211262528,-0.0058165205497332,False,3.950001688216617,-4.565606758380909,-13.669374034709108,0.7535104445741696,161.02415799501918,161.02415799501918,0.0,0.0,7923.0,-106.2212869,39.9589713,2018-06-19 20:11:33+00:00,2521.294,0.66,1.09,7.58,8.0,-0.03,0.05,-0.1,GPS_Atti,1.0,0.0,0.0,0.0,20.0,10.0,73.0,14.0,False,0.031999998,0.0,0.0,0.031999998,0.0,0.031999998,0.0019999999,0.98775107,0.0019999999,0.0019999999
516.873,-106.22128670582651,39.95897116158242,,-7.82968140891894,7.474767729087737,41.19337484237499,0.1333634,0.09952604,-1.0071758,1.0208303,7.0220656,0.9628667,7.121778,-0.05719722,0.021783771,-0.14800616,0.16016203,1520.0,65.01,10.76143437708221,0.2881643540850689,0.3027469885010134,-0.1088522610355084,0.0527930804462209,-0.0371738211262528,-0.0058165205497332,False,3.950001688216617,-4.565606758380909,-13.669374034709108,0.7535104445741696,161.02415799501918,161.02415799501918,0.0,0.0,7923.0,-106.2212869,39.9589713,2018-06-19 20:11:33+00:00,2521.294,0.66,1.09,7.58,8.0,-0.03,0.05,-0.1,GPS_Atti,1.0,0.0,0.0,0.0,20.0,10.0,73.0,14.0,False,0.031999998,0.0,0.0,0.031999998,0.0,0.031999998,0.0019999999,0.98775107,0.0019999999,0.0019999999
516.913,-106.2212868445471,39.95897107841453,,-7.288380784623122,7.058228062002267,41.043960949974704,0.12798381,0.11166233,-0.98627126,1.0007893,8.113434,-1.4052076,9.921887,0.0016679652,0.003725808,-0.16601335,0.16606353,1523.0,64.97,10.093575220275572,0.2853885691614266,0.3040221560601424,-0.124549402850107,-0.0917927426393844,-0.010050402608915,-0.1465629674539752,False,3.927890042364197,-3.80901654402669,-13.980827789842806,0.7685209175525113,-128.03138511329925,-128.03138511329925,0.0,0.0,7963.0,-106.2212869,39.9589713,2018-06-19 20:11:33+00:00,2521.294,0.66,1.09,7.58,8.0,-0.03,0.05,-0.1,GPS_Atti,1.0,0.0,0.0,0.0,20.0,10.0,73.0,14.0,False,0.031999998,0.0,0.0,0.031999998,0.0,0.031999998,0.0019999999,0.98775107,0.0019999999,0.0019999999
516.954,-106.2212868445471,39.95897107841453,,-7.288380784623122,7.058228062002267,41.043960949974704,0.12798381,0.11166233,-0.98627126,1.0007893,8.113434,-1.4052076,9.921887,0.0016679652,0.003725808,-0.16601335,0.16606353,1523.0,64.97,10.093575220275572,0.2853885691614266,0.3040221560601424,-0.124549402850107,-0.0917927426393844,-0.010050402608915,-0.1465629674539752,False,3.927890042364197,-3.80901654402669,-13.980827789842806,0.7685209175525113,-128.03138511329925,-128.03138511329925,0.0,0.0,7963.0,-106.221287,39.9589713,2018-06-19 20:11:33+00:00,2521.321,0.66,1.09,7.57,8.0,-0.04,-0.01,-0.1,GPS_Atti,1.0,0.0,0.0,0.0,20.0,10.0,73.0,14.0,False,0.031999998,0.0,0.0,0.031999998,0.0,0.031999998,0.0019999999,0.9888927,0.0019999999,0.0019999999
516.987,-106.22128687815466,39.95897105215098,,-7.042577328065906,7.0958429445658755,40.885213287999626,0.1337616,0.11525495,-0.95623,0.97239476,-1.2235749,-1.8814204,3.3149862,0.02250668,0.010567155,-0.16301626,0.16490154,1510.0,64.96,9.947325334954858,0.2865977440895619,0.3047370659145656,-0.1410069078017386,-0.1126314577754355,-0.0168917492304284,-0.149560052906055,False,3.7634984620135583,-3.4643974388859533,-14.135671752812414,0.7726115751585583,-135.55416515001028,-135.55416515001028,0.0,0.0,8003.0,-106.221287,39.9589713,2018-06-19 20:11:33+00:00,2521.321,0.66,1.09,7.57,8.0,-0.04,-0.01,-0.1,GPS_Atti,1.0,0.0,0.0,0.0,20.0,10.0,73.0,14.0,False,0.031999998,0.0,0.0,0.031999998,0.0,0.031999998,0.0019999999,0.9888927,0.0019999999,0.0019999999
517.072,-106.22128687815466,39.95897105215098,,-7.042577328065906,7.0958429445658755,40.885213287999626,0.1337616,0.11525495,-0.95623,0.97239476,-1.2235749,-1.8814204,3.3149862,0.02250668,0.010567155,-0.16301626,0.16490154,1510.0,64.96,9.947325334954858,0.2865977440895619,0.3047370659145656,-0.1410069078017386,-0.1126314577754355,-0.0168917492304284,-0.149560052906055,False,3.7634984620135583,-3.4643974388859533,-14.135671752812414,0.7726115751585583,-135.55416515001028,-135.55416515001028,0.0,0.0,8003.0,-106.221287,39.9589713,2018-06-19 20:11:33+00:00,2521.321,0.66,1.09,7.57,8.0,-0.04,-0.01,-0.1,GPS_Atti,1.0,0.0,0.0,0.0,20.0,10.0,73.0,14.0,False,0.031999998,0.0,0.0,0.031999998,0.0,0.031999998,0.0019999999,0.9888927,0.0019999999,0.0019999999
517.113,-106.22128683203364,39.95897106820093,,-7.024208834729039,7.243781383171819,40.89269053301695,0.15146478,0.094711214,-0.9671595,0.98351884,8.19366,0.9423975,10.861879,0.05116693,-0.008115757,-0.12526684,0.135557,1503.0,64.95,10.038718481700318,0.2902827735758535,0.3048596806749231,-0.1554263411610463,-0.1412917067404605,0.0017911627616446,-0.1873094774828143,False,3.716530123057055,-3.1157655675383467,-13.660112806408506,0.7769286913401087,65.5817493000151,65.5817493000151,0.0,0.0,8043.0,-106.221287,39.9589713,2018-06-19 20:11:33+00:00,2521.321,0.66,1.09,7.57,8.0,-0.04,-0.01,-0.1,GPS_Atti,1.0,0.0,0.0,0.0,20.0,10.0,73.0,14.0,False,0.031999998,0.0,0.0,0.031999998,0.0,0.031999998,0.0019999999,0.9888927,0.0019999999,0.0019999999
517.154,-106.22128683203364,39.95897106820093,,-7.024208834729039,7.243781383171819,40.89269053301695,0.15146478,0.094711214,-0.9671595,0.98351884,8.19366,0.9423975,10.861879,0.05116693,-0.008115757,-0.12526684,0.135557,1503.0,64.95,10.038718481700318,0.2902827735758535,0.3048596806749231,-0.1554263411610463,-0.1412917067404605,0.0017911627616446,-0.1873094774828143,False,3.716530123057055,-3.1157655675383467,-13.660112806408506,0.7769286913401087,65.5817493000151,65.5817493000151,0.0,0.0,8043.0,-106.2212871,39.9589712,2018-06-19 20:11:33+00:00,2521.364,0.66,1.09,7.57,8.0,-0.02,-0.02,-0.12,GPS_Atti,1.0,0.0,0.0,0.0,20.0,10.0,73.0,14.0,False,0.031999998,0.0,0.0,0.031999998,0.0,0.031999998,0.0019999999,0.98880404,0.0019999999,0.0019999999
517.187,-106.22128678662769,39.95897110717936,,-6.427153157737272,7.690856001068804,40.84297800510358,0.14831823,0.10564426,-0.9884635,1.0050966,5.153316,1.129171,6.8607235,0.07503036,-0.0049278955,-0.076401696,0.10719635,1512.0,64.96,9.973947688951515,0.2965872461436163,0.304208055322178,-0.1655011514869784,-0.1651551340814449,-0.0013966989975709,-0.2361746169672198,False,3.820020040556301,-2.4489870216971212,-13.087898767802471,0.7827392277853229,41.761689145060494,41.761689145060494,0.0,0.0,8083.0,-106.2212871,39.9589712,2018-06-19 20:11:33+00:00,2521.364,0.66,1.09,7.57,8.0,-0.02,-0.02,-0.12,GPS_Atti,1.0,0.0,0.0,0.0,20.0,10.0,73.0,14.0,False,0.031999998,0.0,0.0,0.031999998,0.0,0.031999998,0.0019999999,0.98880404,0.0019999999,0.0019999999
517.274,-106.22128678662769,39.95897110717936,,-6.427153157737272,7.690856001068804,40.84297800510358,0.14831823,0.10564426,-0.9884635,1.0050966,5.153316,1.129171,6.8607235,0.07503036,-0.0049278955,-0.076401696,0.10719635,1512.0,64.96,9.973947688951515,0.2965872461436163,0.304208055322178,-0.1655011514869784,-0.1651551340814449,-0.0013966989975709,-0.2361746169672198,False,3.820020040556301,-2.4489870216971212,-13.087898767802471,0.7827392277853229,41.761689145060494,41.761689145060494,0.0,0.0,8083.0,-106.2212871,39.9589712,2018-06-19 20:11:33+00:00,2521.364,0.66,1.09,7.57,8.0,-0.02,-0.02,-0.12,GPS_Atti,1.0,0.0,0.0,0.0,20.0,10.0,73.0,14.0,False,0.031999998,0.0,0.0,0.031999998,0.0,0.031999998,0.0019999999,0.98880404,0.0019999999,0.0019999999
517.313,-106.22128691748266,39.95897133667272,,-5.7124297613005925,7.941323093312574,40.81698984913887,0.12263886,0.11797123,-0.9930415,1.0075163,7.300441,-1.2970742,8.581687,0.06780207,-0.00057724304,-0.06940398,0.09702766,1512.0,64.98,9.74023832580998,0.303735841794122,0.3039325295894599,-0.1727985548679953,0.0039750965018021,-0.0149604411946414,0.0016694298768479,False,3.811616682914064,-1.8256910876411896,-13.084614590292404,0.8105885018266068,-23.607912286945737,-23.607912286945737,0.0,0.0,8123.0,-106.2212871,39.9589712,2018-06-19 20:11:33+00:00,2521.364,0.66,1.09,7.57,8.0,-0.02,-0.02,-0.12,GPS_Atti,1.0,0.0,0.0,0.0,20.0,10.0,73.0,14.0,False,0.031999998,0.0,0.0,0.031999998,0.0,0.031999998,0.0019999999,0.98880404,0.0019999999,0.0019999999
517.354,-106.22128691748266,39.95897133667272,,-5.7124297613005925,7.941323093312574,40.81698984913887,0.12263886,0.11797123,-0.9930415,1.0075163,7.300441,-1.2970742,8.581687,0.06780207,-0.00057724304,-0.06940398,0.09702766,1512.0,64.98,9.74023832580998,0.303735841794122,0.3039325295894599,-0.1727985548679953,0.0039750965018021,-0.0149604411946414,0.0016694298768479,False,3.811616682914064,-1.8256910876411896,-13.084614590292404,0.8105885018266068,-23.607912286945737,-23.607912286945737,0.0,0.0,8123.0,-106.2212871,39.9589712,2018-06-19 20:11:33+00:00,2521.406,0.66,1.09,7.57,8.0,0.03,0.0,-0.12,GPS_Atti,1.0,0.0,0.0,0.0,20.0,10.0,73.0,14.0,False,0.031999998,0.0,0.0,0.031999998,0.0,0.031999998,0.0019999999,0.98924017,0.0019999999,0.0019999999
517.387,-106.22128696610636,39.95897143755808,,-5.451902841459718,7.981452582886536,40.79930235640051,0.13109227,0.09440247,-0.9716079,0.98494613,2.8942409,1.4101926,4.1519904,0.055876877,0.011293853,-0.066655815,0.08770846,1503.0,65.0,9.626433341032085,0.3099182794778414,0.3044682292543115,-0.1795998838967989,0.015900290914272,-0.026831536941397,-0.0010787391280691,False,3.817271222579621,-1.316081452216622,-13.169528446554978,0.8225474789348384,-20.275844589053825,-20.275844589053825,0.0,0.0,8163.0,-106.2212871,39.9589712,2018-06-19 20:11:33+00:00,2521.406,0.66,1.09,7.57,8.0,0.03,0.0,-0.12,GPS_Atti,1.0,0.0,0.0,0.0,20.0,10.0,73.0,14.0,False,0.031999998,0.0,0.0,0.031999998,0.0,0.031999998,0.0019999999,0.98924017,0.0019999999,0.0019999999
517.472,-106.22128696610636,39.95897143755808,,-5.451902841459718,7.981452582886536,40.79930235640051,0.13109227,0.09440247,-0.9716079,0.98494613,2.8942409,1.4101926,4.1519904,0.055876877,0.011293853,-0.066655815,0.08770846,1503.0,65.0,9.626433341032085,0.3099182794778414,0.3044682292543115,-0.1795998838967989,0.015900290914272,-0.026831536941397,-0.0010787391280691,False,3.817271222579621,-1.316081452216622,-13.169528446554978,0.8225474789348384,-20.275844589053825,-20.275844589053825,0.0,0.0,8163.0,-106.2212871,39.9589712,2018-06-19 20:11:33+00:00,2521.406,0.66,1.09,7.57,8.0,0.03,0.0,-0.12,GPS_Atti,1.0,0.0,0.0,0.0,20.0,10.0,73.0,14.0,False,0.031999998,0.0,0.0,0.031999998,0.0,0.031999998,0.0019999999,0.98924017,0.0019999999,0.0019999999
517.513,-106.22128701473008,39.95897146736512,,-5.534020420701778,7.652579639311218,40.786349794245105,0.12217261,0.111720815,-1.0728757,1.0855736,-10.205223,0.57473993,11.684079,0.041123375,0.011435003,-0.095569834,0.10466845,1504.0,64.95,9.40576220969898,0.3147641478027196,0.3056037009589119,-0.1877042353073648,0.0306537927765595,-0.0269726872594832,0.0278352803373773,False,3.916433044204496,-1.681318204723084,-13.321332385750791,0.8278540922447748,-51.34881001835511,-51.34881001835511,0.0,0.0,8203.0,-106.2212871,39.9589712,2018-06-19 20:11:33+00:00,2521.406,0.66,1.09,7.57,8.0,0.03,0.0,-0.12,GPS_Atti,1.0,0.0,0.0,0.0,20.0,10.0,73.0,14.0,False,0.031999998,0.0,0.0,0.031999998,0.0,0.031999998,0.0019999999,0.98924017,0.0019999999,0.0019999999
517.554,-106.22128701473008,39.95897146736512,,-5.534020420701778,7.652579639311218,40.786349794245105,0.12217261,0.111720815,-1.0728757,1.0855736,-10.205223,0.57473993,11.684079,0.041123375,0.011435003,-0.095569834,0.10466845,1504.0,64.95,9.40576220969898,0.3147641478027196,0.3056037009589119,-0.1877042353073648,0.0306537927765595,-0.0269726872594832,0.0278352803373773,False,3.916433044204496,-1.681318204723084,-13.321332385750791,0.8278540922447748,-51.34881001835511,-51.34881001835511,0.0,0.0,8203.0,-106.2212872,39.9589713,2018-06-19 20:11:34+00:00,2521.433,0.66,1.09,7.56,8.0,0.06,-0.02,-0.11,GPS_Atti,1.0,0.0,0.0,0.0,20.0,10.0,73.0,14.0,False,0.031999998,0.0,0.0,0.031999998,0.0,0.031999998,0.0019999999,0.98914784,0.0019999999,0.0019999999
517.587,-106.22128707729732,39.95897148424883,,-6.3773776197794545,7.805198493182059,41.08260126785298,0.13068339,0.07248055,-0.9406029,0.9523998,4.405113,6.5753856,14.513571,0.03411895,-0.008716373,-0.10187243,0.107787155,1506.0,65.01,10.029982439361325,0.3185299380275808,0.3057397652168703,-0.1975859892111202,0.0376582177061783,-0.0068213114665626,0.0341378754759271,False,4.27428844660335,-1.9716069063765644,-12.995755254743926,0.8335076067337127,-70.60532031421828,-70.60532031421828,0.0,0.0,8243.0,-106.2212872,39.9589713,2018-06-19 20:11:34+00:00,2521.433,0.66,1.09,7.56,8.0,0.06,-0.02,-0.11,GPS_Atti,1.0,0.0,0.0,0.0,20.0,10.0,73.0,14.0,False,0.031999998,0.0,0.0,0.031999998,0.0,0.031999998,0.0019999999,0.98914784,0.0019999999,0.0019999999
517.674,-106.22128707729732,39.95897148424883,,-6.3773776197794545,7.805198493182059,41.08260126785298,0.13068339,0.07248055,-0.9406029,0.9523998,4.405113,6.5753856,14.513571,0.03411895,-0.008716373,-0.10187243,0.107787155,1506.0,65.01,10.029982439361325,0.3185299380275808,0.3057397652168703,-0.1975859892111202,0.0376582177061783,-0.0068213114665626,0.0341378754759271,False,4.27428844660335,-1.9716069063765644,-12.995755254743926,0.8335076067337127,-70.60532031421828,-70.60532031421828,0.0,0.0,8243.0,-106.2212872,39.9589713,2018-06-19 20:11:34+00:00,2521.433,0.66,1.09,7.56,8.0,0.06,-0.02,-0.11,GPS_Atti,1.0,0.0,0.0,0.0,20.0,10.0,73.0,14.0,False,0.031999998,0.0,0.0,0.031999998,0.0,0.031999998,0.0019999999,0.98914784,0.0019999999,0.0019999999
517.713,-106.22128718527055,39.95897140441598,,-5.628494657403266,7.368388200144625,41.10768154568148,0.11235262,0.08167134,-1.0361487,1.0454173,-0.7827892,2.6211722,18.2828,0.029807705,-0.044001058,-0.08188236,0.0976182,1502.0,64.95,9.234892269477298,0.3217254904628532,0.3031045372143381,-0.2067714854531459,-0.0109742130215214,-0.0130640230535347,-0.0353158722210527,False,4.734004071947311,-1.7905349217257935,-13.291250035154007,0.8462939712960716,-133.96793662155355,-133.96793662155355,0.0,0.0,8283.0,-106.2212872,39.9589713,2018-06-19 20:11:34+00:00,2521.433,0.66,1.09,7.56,8.0,0.06,-0.02,-0.11,GPS_Atti,1.0,0.0,0.0,0.0,20.0,10.0,73.0,14.0,False,0.031999998,0.0,0.0,0.031999998,0.0,0.031999998,0.0019999999,0.98914784,0.0019999999,0.0019999999
517.754,-106.22128718527055,39.95897140441598,,-5.628494657403266,7.368388200144625,41.10768154568148,0.11235262,0.08167134,-1.0361487,1.0454173,-0.7827892,2.6211722,18.2828,0.029807705,-0.044001058,-0.08188236,0.0976182,1502.0,64.95,9.234892269477298,0.3217254904628532,0.3031045372143381,-0.2067714854531459,-0.0109742130215214,-0.0130640230535347,-0.0353158722210527,False,4.734004071947311,-1.7905349217257935,-13.291250035154007,0.8462939712960716,-133.96793662155355,-133.96793662155355,0.0,0.0,8283.0,-106.2212874,39.9589714,2018-06-19 20:11:34+00:00,2521.459,0.66,1.09,7.56,8.0,0.07,-0.05,-0.1,GPS_Atti,1.0,0.0,0.0,0.0,20.0,10.0,73.0,14.0,False,0.031999998,0.0,0.0,0.031999998,0.0,0.031999998,0.0019999999,0.9893164,0.0019999999,0.0019999999
517.787,-106.22128724819534,39.95897140608351,,-5.4855726306191706,7.041724604346464,41.32641945754968,0.1334252,0.080620565,-0.9909115,1.003099,-20.16847,6.8268886,22.86447,0.03875438,-0.06614028,-0.059423268,0.09699259,1509.0,64.91,8.892602824434999,0.3251527578568982,0.297598814867186,-0.2138350418028949,-0.0199208888287591,0.00907519837629,-0.0577749619770646,False,5.206291776722537,-2.837842146717321,-13.77841601554428,0.8516603448419833,-88.01990538989106,-88.01990538989106,0.0,0.0,8323.0,-106.2212874,39.9589714,2018-06-19 20:11:34+00:00,2521.459,0.66,1.09,7.56,8.0,0.07,-0.05,-0.1,GPS_Atti,1.0,0.0,0.0,0.0,20.0,10.0,73.0,14.0,False,0.031999998,0.0,0.0,0.031999998,0.0,0.031999998,0.0019999999,0.9893164,0.0019999999,0.0019999999
517.872,-106.22128724819534,39.95897140608351,,-5.4855726306191706,7.041724604346464,41.32641945754968,0.1334252,0.080620565,-0.9909115,1.003099,-20.16847,6.8268886,22.86447,0.03875438,-0.06614028,-0.059423268,0.09699259,1509.0,64.91,8.892602824434999,0.3251527578568982,0.297598814867186,-0.2138350418028949,-0.0199208888287591,0.00907519837629,-0.0577749619770646,False,5.206291776722537,-2.837842146717321,-13.77841601554428,0.8516603448419833,-88.01990538989106,-88.01990538989106,0.0,0.0,8323.0,-106.2212874,39.9589714,2018-06-19 20:11:34+00:00,2521.459,0.66,1.09,7.56,8.0,0.07,-0.05,-0.1,GPS_Atti,1.0,0.0,0.0,0.0,20.0,10.0,73.0,14.0,False,0.031999998,0.0,0.0,0.031999998,0.0,0.031999998,0.0019999999,0.9893164,0.0019999999,0.0019999999
517.913,-106.22128737547504,39.958971434014586,,-5.334028598149056,7.261253083425653,41.56204879509824,0.09453193,0.06954558,-0.9381232,0.9454354,-7.9262366,4.5136137,24.41801,0.06104186,-0.11599761,-0.0033809766,0.13112202,1515.0,64.95,8.976388920204199,0.3301443973312814,0.2884885852402732,-0.2169764040058908,-0.0422083693618821,0.0589325316787879,-0.1138172532010675,False,5.773524540626568,-4.243091926775833,-14.494634608434351,0.8629444058993938,-74.02384940278615,-74.02384940278615,0.0,0.0,8363.0,-106.2212874,39.9589714,2018-06-19 20:11:34+00:00,2521.459,0.66,1.09,7.56,8.0,0.07,-0.05,-0.1,GPS_Atti,1.0,0.0,0.0,0.0,20.0,10.0,73.0,14.0,False,0.031999998,0.0,0.0,0.031999998,0.0,0.031999998,0.0019999999,0.9893164,0.0019999999,0.0019999999
517.954,-106.22128737547504,39.958971434014586,,-5.334028598149056,7.261253083425653,41.56204879509824,0.09453193,0.06954558,-0.9381232,0.9454354,-7.9262366,4.5136137,24.41801,0.06104186,-0.11599761,-0.0033809766,0.13112202,1515.0,64.95,8.976388920204199,0.3301443973312814,0.2884885852402732,-0.2169764040058908,-0.0422083693618821,0.0589325316787879,-0.1138172532010675,False,5.773524540626568,-4.243091926775833,-14.494634608434351,0.8629444058993938,-74.02384940278615,-74.02384940278615,0.0,0.0,8363.0,-106.2212876,39.9589715,2018-06-19 20:11:34+00:00,2521.483,0.66,1.09,7.56,8.0,0.05,-0.07,-0.1,GPS_Atti,1.0,0.0,0.0,0.0,20.0,10.0,73.0,14.0,False,0.031999998,0.0,0.0,0.031999998,0.0,0.031999998,0.0019999999,0.9886754,0.0019999999,0.0019999999
517.987,-106.2212875270666,39.95897147299302,,-4.845734989952623,7.349389355094091,41.57933130413092,0.13235277,0.04809634,-0.96626735,0.9764748,16.686172,3.18368,18.479904,0.078039706,-0.13338134,0.056393083,0.16450214,1499.0,64.93,8.77412995031215,0.3370967779345335,0.2760226819467135,-0.2143264457979512,-0.0592062133426713,0.076316256129853,-0.1735913130033612,False,6.158295267440735,-3.8052020667932993,-15.263159264390197,0.8765723581828442,-71.45569641624459,-71.45569641624459,0.0,0.0,8403.0,-106.2212876,39.9589715,2018-06-19 20:11:34+00:00,2521.483,0.66,1.09,7.56,8.0,0.05,-0.07,-0.1,GPS_Atti,1.0,0.0,0.0,0.0,20.0,10.0,73.0,14.0,False,0.031999998,0.0,0.0,0.031999998,0.0,0.031999998,0.0019999999,0.9886754,0.0019999999,0.0019999999
518.074,-106.2212875270666,39.95897147299302,,-4.845734989952623,7.349389355094091,41.57933130413092,0.13235277,0.04809634,-0.96626735,0.9764748,16.686172,3.18368,18.479904,0.078039706,-0.13338134,0.056393083,0.16450214,1499.0,64.93,8.77412995031215,0.3370967779345335,0.2760226819467135,-0.2143264457979512,-0.0592062133426713,0.076316256129853,-0.1735913130033612,False,6.158295267440735,-3.8052020667932993,-15.263159264390197,0.8765723581828442,-71.45569641624459,-71.45569641624459,0.0,0.0,8403.0,-106.2212876,39.9589715,2018-06-19 20:11:34+00:00,2521.483,0.66,1.09,7.56,8.0,0.05,-0.07,-0.1,GPS_Atti,1.0,0.0,0.0,0.0,20.0,10.0,73.0,14.0,False,0.031999998,0.0,0.0,0.031999998,0.0,0.031999998,0.0019999999,0.9886754,0.0019999999,0.0019999999
518.113,-106.22128775123618,39.95897153573371,,-2.966398021649437,7.825605137422067,41.17332678471605,0.1108658,0.07423269,-0.96782076,0.97697425,1.3994163,-5.662384,6.1810274,0.064209685,-0.12921841,0.07508758,0.16266046,1506.0,65.03,8.35601475224381,0.3442075110159237,0.2628958999424213,-0.2077540177720038,-0.0277016806285035,0.0086122474914532,0.172127438918627,False,6.034390326273751,-2.901143397499709,-15.001690474675344,0.8969124943644945,-69.94090443608349,-69.94090443608349,0.0,0.0,8443.0,-106.2212876,39.9589715,2018-06-19 20:11:34+00:00,2521.483,0.66,1.09,7.56,8.0,0.05,-0.07,-0.1,GPS_Atti,1.0,0.0,0.0,0.0,20.0,10.0,73.0,14.0,False,0.031999998,0.0,0.0,0.031999998,0.0,0.031999998,0.0019999999,0.9886754,0.0019999999,0.0019999999
518.154,-106.22128775123618,39.95897153573371,,-2.966398021649437,7.825605137422067,41.17332678471605,0.1108658,0.07423269,-0.96782076,0.97697425,1.3994163,-5.662384,6.1810274,0.064209685,-0.12921841,0.07508758,0.16266046,1506.0,65.03,8.35601475224381,0.3442075110159237,0.2628958999424213,-0.2077540177720038,-0.0277016806285035,0.0086122474914532,0.172127438918627,False,6.034390326273751,-2.901143397499709,-15.001690474675344,0.8969124943644945,-69.94090443608349,-69.94090443608349,0.0,0.0,8443.0,-106.221288,39.9589716,2018-06-19 20:11:34+00:00,2521.484,0.66,1.09,7.55,8.0,0.05,-0.13,-0.06,GPS_Atti,1.0,0.0,0.0,0.0,20.0,10.0,73.0,14.0,False,0.031999998,0.0,0.0,0.031999998,0.0,0.031999998,0.0019999999,0.98978126,0.0019999999,0.0019999999
518.187,-106.221288149164,39.95897161723408,,-3.30338526045061,6.783978346166594,41.10793527850466,0.105955295,0.069824845,-1.0406289,1.0483371,-3.3592863,0.78790534,13.184287,0.0455195,-0.11866657,0.10630171,0.16569199,1500.0,65.02,7.532093840758639,0.3496959795023429,0.2504971119661405,-0.1986812320792523,-0.0090114968697678,-0.0019396000260371,0.1409133060136206,False,5.790577137014225,-2.999172782831465,-15.7404754455074,0.9320183251263988,-75.03992319566372,-75.03992319566372,0.0,0.0,8483.0,-106.221288,39.9589716,2018-06-19 20:11:34+00:00,2521.484,0.66,1.09,7.55,8.0,0.05,-0.13,-0.06,GPS_Atti,1.0,0.0,0.0,0.0,20.0,10.0,73.0,14.0,False,0.031999998,0.0,0.0,0.031999998,0.0,0.031999998,0.0019999999,0.98978126,0.0019999999,0.0019999999
518.272,-106.221288149164,39.95897161723408,,-3.30338526045061,6.783978346166594,41.10793527850466,0.105955295,0.069824845,-1.0406289,1.0483371,-3.3592863,0.78790534,13.184287,0.0455195,-0.11866657,0.10630171,0.16569199,1500.0,65.02,7.532093840758639,0.3496959795023429,0.2504971119661405,-0.1986812320792523,-0.0090114968697678,-0.0019396000260371,0.1409133060136206,False,5.790577137014225,-2.999172782831465,-15.7404754455074,0.9320183251263988,-75.03992319566372,-75.03992319566372,0.0,0.0,8483.0,-106.221288,39.9589716,2018-06-19 20:11:34+00:00,2521.484,0.66,1.09,7.55,8.0,0.05,-0.13,-0.06,GPS_Atti,1.0,0.0,0.0,0.0,20.0,10.0,73.0,14.0,False,0.031999998,0.0,0.0,0.031999998,0.0,0.031999998,0.0019999999,0.98978126,0.0019999999,0.0019999999
518.313,-106.22128833007277,39.9589716643417,,-3.3809405193436817,6.281410298444404,41.09657786905828,0.124674745,0.069134474,-1.0379046,1.0476494,0.044714864,3.1269615,8.207918,0.028728763,-0.1264856,0.09146537,0.15871315,1516.0,65.03,7.120748245825711,0.3534097522092736,0.2382350146970822,-0.1887892569120595,0.0077792414595234,0.0058794341331463,0.155749647156275,False,5.986392160620198,-3.1649620466445185,-15.997367588252018,0.9483028881628768,-71.2365204544906,-71.2365204544906,0.0,0.0,8523.0,-106.221288,39.9589716,2018-06-19 20:11:34+00:00,2521.484,0.66,1.09,7.55,8.0,0.05,-0.13,-0.06,GPS_Atti,1.0,0.0,0.0,0.0,20.0,10.0,73.0,14.0,False,0.031999998,0.0,0.0,0.031999998,0.0,0.031999998,0.0019999999,0.98978126,0.0019999999,0.0019999999
518.354,-106.22128833007277,39.9589716643417,,-3.3809405193436817,6.281410298444404,41.09657786905828,0.124674745,0.069134474,-1.0379046,1.0476494,0.044714864,3.1269615,8.207918,0.028728763,-0.1264856,0.09146537,0.15871315,1516.0,65.03,7.120748245825711,0.3534097522092736,0.2382350146970822,-0.1887892569120595,0.0077792414595234,0.0058794341331463,0.155749647156275,False,5.986392160620198,-3.1649620466445185,-15.997367588252018,0.9483028881628768,-71.2365204544906,-71.2365204544906,0.0,0.0,8523.0,-106.2212884,39.9589717,2018-06-19 20:11:34+00:00,2521.492,0.66,1.09,7.55,8.0,0.04,-0.12,-0.04,GPS_Atti,1.0,0.0,0.0,0.0,20.0,10.0,73.0,14.0,False,0.031999998,0.0,0.0,0.031999998,0.0,0.031999998,0.0019999999,0.99011636,0.0019999999,0.0019999999
518.387,-106.22128849489285,39.95897170144417,,-3.218889669828267,6.602835693756113,41.0756971362242,0.11002318,0.07799023,-1.0351775,1.0439253,0.9534784,0.24567716,3.4878423,0.018533647,-0.11587844,0.08041413,0.1422594,1503.0,65.01,7.33325761724133,0.3557708534263781,0.2261271675307199,-0.1802026253890289,0.0179743570406782,-0.0047277264946955,0.1668008847394354,False,6.1548799973465975,-3.115095031047531,-15.451095373364296,0.962944016131895,-73.6334115817426,-73.6334115817426,0.0,0.0,8563.0,-106.2212884,39.9589717,2018-06-19 20:11:34+00:00,2521.492,0.66,1.09,7.55,8.0,0.04,-0.12,-0.04,GPS_Atti,1.0,0.0,0.0,0.0,20.0,10.0,73.0,14.0,False,0.031999998,0.0,0.0,0.031999998,0.0,0.031999998,0.0019999999,0.99011636,0.0019999999,0.0019999999
518.472,-106.22128849489285,39.95897170144417,,-3.218889669828267,6.602835693756113,41.0756971362242,0.11002318,0.07799023,-1.0351775,1.0439253,0.9534784,0.24567716,3.4878423,0.018533647,-0.11587844,0.08041413,0.1422594,1503.0,65.01,7.33325761724133,0.3557708534263781,0.2261271675307199,-0.1802026253890289,0.0179743570406782,-0.0047277264946955,0.1668008847394354,False,6.1548799973465975,-3.115095031047531,-15.451095373364296,0.962944016131895,-73.6334115817426,-73.6334115817426,0.0,0.0,8563.0,-106.2212884,39.9589717,2018-06-19 20:11:34+00:00,2521.492,0.66,1.09,7.55,8.0,0.04,-0.12,-0.04,GPS_Atti,1.0,0.0,0.0,0.0,20.0,10.0,73.0,14.0,False,0.031999998,0.0,0.0,0.031999998,0.0,0.031999998,0.0019999999,0.99011636,0.0019999999,0.0019999999
518.513,-106.22128867544409,39.95897171770255,,-2.644048374757464,6.8321637446077235,40.91315730998828,0.12015533,0.09238022,-1.0322238,1.0432917,1.5506893,0.69690734,3.2375162,-0.017222911,-0.07384172,0.032399863,0.082455926,1506.0,65.04,7.316963444935195,0.3558364142237167,0.2166376855878553,-0.1745598599886761,0.0678048550464192,-0.1230751330915817,0.3405021815482603,False,6.202026481570101,-2.9898407915879943,-15.421546282314011,0.9784384832614376,-83.29963135467716,-83.29963135467716,0.0,0.0,8603.0,-106.2212884,39.9589717,2018-06-19 20:11:34+00:00,2521.492,0.66,1.09,7.55,8.0,0.04,-0.12,-0.04,GPS_Atti,1.0,0.0,0.0,0.0,20.0,10.0,73.0,14.0,False,0.031999998,0.0,0.0,0.031999998,0.0,0.031999998,0.0019999999,0.99011636,0.0019999999,0.0019999999
518.554,-106.22128867544409,39.95897171770255,,-2.644048374757464,6.8321637446077235,40.91315730998828,0.12015533,0.09238022,-1.0322238,1.0432917,1.5506893,0.69690734,3.2375162,-0.017222911,-0.07384172,0.032399863,0.082455926,1506.0,65.04,7.316963444935195,0.3558364142237167,0.2166376855878553,-0.1745598599886761,0.0678048550464192,-0.1230751330915817,0.3405021815482603,False,6.202026481570101,-2.9898407915879943,-15.421546282314011,0.9784384832614376,-83.29963135467716,-83.29963135467716,0.0,0.0,8603.0,-106.2212887,39.9589716,2018-06-19 20:11:35+00:00,2521.51,0.66,1.09,7.55,8.0,0.0,-0.13,-0.05,GPS_Atti,1.0,0.0,0.0,0.0,20.0,10.0,73.0,14.0,False,0.031999998,0.0,0.0,0.031999998,0.0,0.031999998,0.0019999999,0.9905179,0.0019999999,0.0019999999
518.588,-106.22128894144436,39.958971762725774,,-3.333553356659628,6.074498596633457,40.844933917046994,0.1224715,0.09377598,-1.0492789,1.0605562,-7.9158187,-2.4250505,17.185137,-0.044084083,-0.03327448,-0.041687794,0.069198765,1501.0,65.0,6.917133587725675,0.3527680709977119,0.2112766453031582,-0.1750247100521846,0.0946660272158661,-0.1636423747006782,0.4145898385826574,False,6.115534941801343,-3.3084080565004115,-16.3131506339505,1.001656237180245,-77.5477393653193,-77.5477393653193,0.0,0.0,8643.0,-106.2212887,39.9589716,2018-06-19 20:11:35+00:00,2521.51,0.66,1.09,7.55,8.0,0.0,-0.13,-0.05,GPS_Atti,1.0,0.0,0.0,0.0,20.0,10.0,73.0,14.0,False,0.031999998,0.0,0.0,0.031999998,0.0,0.031999998,0.0019999999,0.9905179,0.0019999999,0.0019999999
518.672,-106.22128894144436,39.958971762725774,,-3.333553356659628,6.074498596633457,40.844933917046994,0.1224715,0.09377598,-1.0492789,1.0605562,-7.9158187,-2.4250505,17.185137,-0.044084083,-0.03327448,-0.041687794,0.069198765,1501.0,65.0,6.917133587725675,0.3527680709977119,0.2112766453031582,-0.1750247100521846,0.0946660272158661,-0.1636423747006782,0.4145898385826574,False,6.115534941801343,-3.3084080565004115,-16.3131506339505,1.001656237180245,-77.5477393653193,-77.5477393653193,0.0,0.0,8643.0,-106.2212887,39.9589716,2018-06-19 20:11:35+00:00,2521.51,0.66,1.09,7.55,8.0,0.0,-0.13,-0.05,GPS_Atti,1.0,0.0,0.0,0.0,20.0,10.0,73.0,14.0,False,0.031999998,0.0,0.0,0.031999998,0.0,0.031999998,0.0019999999,0.9905179,0.0019999999,0.0019999999
518.713,-106.22128902546326,39.95897172395578,,-3.7753526191699183,5.706312549953304,40.775893843178906,0.13086359,0.09766278,-1.0450503,1.0577303,6.4058523,-2.0260606,8.849186,-0.072675645,-0.0033493266,-0.1114889,0.1331268,1513.0,65.01,6.82847547954335,0.3469315098553522,0.2094459020830328,-0.1826816749749014,0.1232575892783681,-0.1935675273600944,0.4843909456316458,False,5.893033722740256,-3.383887942965885,-17.35382970356477,1.0100148012242025,-121.04837362018029,-121.04837362018029,0.0,0.0,8683.0,-106.2212887,39.9589716,2018-06-19 20:11:35+00:00,2521.51,0.66,1.09,7.55,8.0,0.0,-0.13,-0.05,GPS_Atti,1.0,0.0,0.0,0.0,20.0,10.0,73.0,14.0,False,0.031999998,0.0,0.0,0.031999998,0.0,0.031999998,0.0019999999,0.9905179,0.0019999999,0.0019999999
518.754,-106.22128902546326,39.95897172395578,,-3.7753526191699183,5.706312549953304,40.775893843178906,0.13086359,0.09766278,-1.0450503,1.0577303,6.4058523,-2.0260606,8.849186,-0.072675645,-0.0033493266,-0.1114889,0.1331268,1513.0,65.01,6.82847547954335,0.3469315098553522,0.2094459020830328,-0.1826816749749014,0.1232575892783681,-0.1935675273600944,0.4843909456316458,False,5.893033722740256,-3.383887942965885,-17.35382970356477,1.0100148012242025,-121.04837362018029,-121.04837362018029,0.0,0.0,8683.0,-106.221289,39.9589715,2018-06-19 20:11:35+00:00,2521.548,0.66,1.09,7.55,7.0,-0.03,-0.09,-0.08,GPS_Atti,1.0,0.0,0.0,0.0,20.0,10.0,73.0,14.0,False,0.031999998,0.0,0.0,0.031999998,0.0,0.031999998,0.0019999999,0.9902307,0.0019999999,0.0019999999
518.787,-106.22128906979664,39.9589716801832,,-5.085751433413259,7.277195275745225,40.99313685034382,0.09921377,0.064322054,-0.901183,0.90890676,1.9235988,-2.0946238,5.489857,-0.0754379,0.019801453,-0.07788762,0.11022457,1512.0,64.97,8.847174252740757,0.3395276404442882,0.2102683075616624,-0.1921481891563417,0.0615336286817943,-0.1318206361633746,-0.0051066872608477,False,5.687049804798335,-2.967517066628716,-17.40698435242848,1.016176641977224,-142.1769287283582,-142.1769287283582,0.0,0.0,8723.0,-106.221289,39.9589715,2018-06-19 20:11:35+00:00,2521.548,0.66,1.09,7.55,7.0,-0.03,-0.09,-0.08,GPS_Atti,1.0,0.0,0.0,0.0,20.0,10.0,73.0,14.0,False,0.031999998,0.0,0.0,0.031999998,0.0,0.031999998,0.0019999999,0.9902307,0.0019999999,0.0019999999
518.874,-106.22128906979664,39.9589716801832,,-5.085751433413259,7.277195275745225,40.99313685034382,0.09921377,0.064322054,-0.901183,0.90890676,1.9235988,-2.0946238,5.489857,-0.0754379,0.019801453,-0.07788762,0.11022457,1512.0,64.97,8.847174252740757,0.3395276404442882,0.2102683075616624,-0.1921481891563417,0.0615336286817943,-0.1318206361633746,-0.0051066872608477,False,5.687049804798335,-2.967517066628716,-17.40698435242848,1.016176641977224,-142.1769287283582,-142.1769287283582,0.0,0.0,8723.0,-106.221289,39.9589715,2018-06-19 20:11:35+00:00,2521.548,0.66,1.09,7.55,7.0,-0.03,-0.09,-0.08,GPS_Atti,1.0,0.0,0.0,0.0,20.0,10.0,73.0,14.0,False,0.031999998,0.0,0.0,0.031999998,0.0,0.031999998,0.0019999999,0.9902307,0.0019999999,0.0019999999
518.913,-106.22128904655736,39.95897154824016,,-4.954163101094214,6.89023078478259,40.81028753316238,0.12778194,0.111623965,-0.9998876,1.0141811,5.5023804,-5.158237,12.370678,-0.083373964,0.04130236,-0.07989733,0.122640476,1518.0,64.99,8.458765609946342,0.3315938322574254,0.2133208875926158,-0.2000306951692891,0.0694696891104137,-0.1533215440017192,-0.003096975101214,False,5.324716641215673,-2.5965353818155563,-17.662255078461385,1.0309811391320882,172.31125606337946,172.31125606337946,0.0,0.0,8763.0,-106.221289,39.9589715,2018-06-19 20:11:35+00:00,2521.548,0.66,1.09,7.55,7.0,-0.03,-0.09,-0.08,GPS_Atti,1.0,0.0,0.0,0.0,20.0,10.0,73.0,14.0,False,0.031999998,0.0,0.0,0.031999998,0.0,0.031999998,0.0019999999,0.9902307,0.0019999999,0.0019999999
518.954,-106.22128904655736,39.95897154824016,,-4.954163101094214,6.89023078478259,40.81028753316238,0.12778194,0.111623965,-0.9998876,1.0141811,5.5023804,-5.158237,12.370678,-0.083373964,0.04130236,-0.07989733,0.122640476,1518.0,64.99,8.458765609946342,0.3315938322574254,0.2133208875926158,-0.2000306951692891,0.0694696891104137,-0.1533215440017192,-0.003096975101214,False,5.324716641215673,-2.5965353818155563,-17.662255078461385,1.0309811391320882,172.31125606337946,172.31125606337946,0.0,0.0,8763.0,-106.2212891,39.9589714,2018-06-19 20:11:35+00:00,2521.596,0.64,1.06,7.54,8.0,-0.06,-0.03,-0.13,GPS_Atti,1.0,0.0,0.0,0.0,20.0,10.0,73.0,14.0,False,0.031999998,0.0,0.0,0.031999998,0.0,0.031999998,0.0019999999,0.9897927,0.0019999999,0.0019999999
518.987,-106.22128900937452,39.9589712733067,,-5.078539872427947,7.7510311717472575,40.69850275266092,0.13686493,0.11533469,-0.9210963,0.93832433,-5.8233995,-2.4227047,11.522975,-0.099482134,0.06153736,-0.012444984,0.11763681,1500.0,65.03,9.233014945362973,0.3224532594966547,0.2184616182001519,-0.2046466836127365,0.0855778592621242,-0.1735565423172919,-0.0705493201446348,False,4.945762098152954,-2.6125824217579066,-17.67035780558399,1.06171616953573,174.0816074007732,174.0816074007732,0.0,0.0,8803.0,-106.2212891,39.9589714,2018-06-19 20:11:35+00:00,2521.596,0.64,1.06,7.54,8.0,-0.06,-0.03,-0.13,GPS_Atti,1.0,0.0,0.0,0.0,20.0,10.0,73.0,14.0,False,0.031999998,0.0,0.0,0.031999998,0.0,0.031999998,0.0019999999,0.9897927,0.0019999999,0.0019999999
519.072,-106.22128900937452,39.9589712733067,,-5.078539872427947,7.7510311717472575,40.69850275266092,0.13686493,0.11533469,-0.9210963,0.93832433,-5.8233995,-2.4227047,11.522975,-0.099482134,0.06153736,-0.012444984,0.11763681,1500.0,65.03,9.233014945362973,0.3224532594966547,0.2184616182001519,-0.2046466836127365,0.0855778592621242,-0.1735565423172919,-0.0705493201446348,False,4.945762098152954,-2.6125824217579066,-17.67035780558399,1.06171616953573,174.0816074007732,174.0816074007732,0.0,0.0,8803.0,-106.2212891,39.9589714,2018-06-19 20:11:35+00:00,2521.596,0.64,1.06,7.54,8.0,-0.06,-0.03,-0.13,GPS_Atti,1.0,0.0,0.0,0.0,20.0,10.0,73.0,14.0,False,0.031999998,0.0,0.0,0.031999998,0.0,0.031999998,0.0019999999,0.9897927,0.0019999999,0.0019999999
519.113,-106.22128896468362,39.95897112739812,,-5.644438454968758,7.081284797737715,40.5220908944984,0.13271995,0.137972,-0.9788295,0.99737555,-9.509136,-1.3483102,16.601389,-0.09645753,0.08462856,0.06480888,0.14375758,1514.0,65.03,9.020152165629206,0.3126467087539311,0.2257770511358359,-0.2020259318514945,0.0825532588159,-0.1966477430564372,-0.1478031870853716,False,4.757027220123746,-3.3799578679154365,-17.86543294754847,1.078381604559099,166.7876319334807,166.7876319334807,0.0,0.0,8843.0,-106.2212891,39.9589714,2018-06-19 20:11:35+00:00,2521.596,0.64,1.06,7.54,8.0,-0.06,-0.03,-0.13,GPS_Atti,1.0,0.0,0.0,0.0,20.0,10.0,73.0,14.0,False,0.031999998,0.0,0.0,0.031999998,0.0,0.031999998,0.0019999999,0.9897927,0.0019999999,0.0019999999
519.154,-106.22128896468362,39.95897112739812,,-5.644438454968758,7.081284797737715,40.5220908944984,0.13271995,0.137972,-0.9788295,0.99737555,-9.509136,-1.3483102,16.601389,-0.09645753,0.08462856,0.06480888,0.14375758,1514.0,65.03,9.020152165629206,0.3126467087539311,0.2257770511358359,-0.2020259318514945,0.0825532588159,-0.1966477430564372,-0.1478031870853716,False,4.757027220123746,-3.3799578679154365,-17.86543294754847,1.078381604559099,166.7876319334807,166.7876319334807,0.0,0.0,8843.0,-106.2212891,39.9589712,2018-06-19 20:11:35+00:00,2521.625,0.64,1.06,7.54,8.0,-0.1,0.02,-0.11,GPS_Atti,1.0,0.0,0.0,0.0,20.0,10.0,73.0,14.0,False,0.031999998,0.0,0.0,0.031999998,0.0,0.031999998,0.0019999999,0.98991865,0.0019999999,0.0019999999
519.187,-106.22128889246312,39.95897099128626,,-6.423161779740589,6.5515046287447,40.62869160721633,0.15872045,0.14273834,-0.9974846,1.0200696,-7.042059,1.7205665,7.2497005,-0.08378255,0.10920229,0.08201915,0.1602242,1503.0,64.98,9.136124922378846,0.3036369045897515,0.235466227423629,-0.1946863225343804,-0.1077395948256934,-0.0714128637936204,0.0174772635991384,False,4.7756354899293,-4.207315584191747,-18.54657292783986,1.0947204019775645,157.86819122483092,157.86819122483092,0.0,0.0,8883.0,-106.2212891,39.9589712,2018-06-19 20:11:35+00:00,2521.625,0.64,1.06,7.54,8.0,-0.1,0.02,-0.11,GPS_Atti,1.0,0.0,0.0,0.0,20.0,10.0,73.0,14.0,False,0.031999998,0.0,0.0,0.031999998,0.0,0.031999998,0.0019999999,0.98991865,0.0019999999,0.0019999999
519.274,-106.22128889246312,39.95897099128626,,-6.423161779740589,6.5515046287447,40.62869160721633,0.15872045,0.14273834,-0.9974846,1.0200696,-7.042059,1.7205665,7.2497005,-0.08378255,0.10920229,0.08201915,0.1602242,1503.0,64.98,9.136124922378846,0.3036369045897515,0.235466227423629,-0.1946863225343804,-0.1077395948256934,-0.0714128637936204,0.0174772635991384,False,4.7756354899293,-4.207315584191747,-18.54657292783986,1.0947204019775645,157.86819122483092,157.86819122483092,0.0,0.0,8883.0,-106.2212891,39.9589712,2018-06-19 20:11:35+00:00,2521.625,0.64,1.06,7.54,8.0,-0.1,0.02,-0.11,GPS_Atti,1.0,0.0,0.0,0.0,20.0,10.0,73.0,14.0,False,0.031999998,0.0,0.0,0.031999998,0.0,0.031999998,0.0019999999,0.98991865,0.0019999999,0.0019999999
519.313,-106.22128876661354,39.95897090457487,,-7.200527180874385,7.243299136077851,40.74515992205267,0.11171977,0.09713956,-0.97470367,0.9858827,-4.0800076,0.5423653,6.540486,-0.09714334,0.124531955,0.10803004,0.19135185,1508.0,65.02,10.159962572715852,0.2945983400375951,0.2471429533503197,-0.1851919826219727,-0.0943788113679373,-0.0867425302293389,-0.008533629686136,False,4.888685398237612,-4.762943723135322,-18.29687974090916,1.1091432977490574,131.9522560285175,131.9522560285175,0.0,0.0,8923.0,-106.2212891,39.9589712,2018-06-19 20:11:35+00:00,2521.625,0.64,1.06,7.54,8.0,-0.1,0.02,-0.11,GPS_Atti,1.0,0.0,0.0,0.0,20.0,10.0,73.0,14.0,False,0.031999998,0.0,0.0,0.031999998,0.0,0.031999998,0.0019999999,0.98991865,0.0019999999,0.0019999999
519.354,-106.22128876661354,39.95897090457487,,-7.200527180874385,7.243299136077851,40.74515992205267,0.11171977,0.09713956,-0.97470367,0.9858827,-4.0800076,0.5423653,6.540486,-0.09714334,0.124531955,0.10803004,0.19135185,1508.0,65.02,10.159962572715852,0.2945983400375951,0.2471429533503197,-0.1851919826219727,-0.0943788113679373,-0.0867425302293389,-0.008533629686136,False,4.888685398237612,-4.762943723135322,-18.29687974090916,1.1091432977490574,131.9522560285175,131.9522560285175,0.0,0.0,8923.0,-106.2212889,39.9589711,2018-06-19 20:11:35+00:00,2521.642,0.64,1.06,7.54,8.0,-0.05,0.1,-0.08,GPS_Atti,1.0,0.0,0.0,0.0,20.0,10.0,73.0,14.0,False,0.031999998,0.0,0.0,0.031999998,0.0,0.031999998,0.0019999999,0.98888844,0.0019999999,0.0019999999
519.387,-106.22128865041718,39.95897081953101,,-6.961819490886369,6.861698282077019,40.790066006028844,0.12793714,0.11128582,-1.0589485,1.0724386,10.17161,1.3705859,12.702821,-0.09656938,0.11505774,0.045555197,0.1569688,1516.0,64.99,9.728095642401756,0.2849032454695077,0.259134136623814,-0.1775052213304206,-0.0949527668442213,-0.0772683123376458,0.0539412171537687,False,4.984426365609579,-4.458066165343553,-18.417082322656597,1.1228365534082465,133.67694896465093,133.67694896465093,0.0,0.0,8963.0,-106.2212889,39.9589711,2018-06-19 20:11:35+00:00,2521.642,0.64,1.06,7.54,8.0,-0.05,0.1,-0.08,GPS_Atti,1.0,0.0,0.0,0.0,20.0,10.0,73.0,14.0,False,0.031999998,0.0,0.0,0.031999998,0.0,0.031999998,0.0019999999,0.98888844,0.0019999999,0.0019999999
519.472,-106.22128865041718,39.95897081953101,,-6.961819490886369,6.861698282077019,40.790066006028844,0.12793714,0.11128582,-1.0589485,1.0724386,10.17161,1.3705859,12.702821,-0.09656938,0.11505774,0.045555197,0.1569688,1516.0,64.99,9.728095642401756,0.2849032454695077,0.259134136623814,-0.1775052213304206,-0.0949527668442213,-0.0772683123376458,0.0539412171537687,False,4.984426365609579,-4.458066165343553,-18.417082322656597,1.1228365534082465,133.67694896465093,133.67694896465093,0.0,0.0,8963.0,-106.2212889,39.9589711,2018-06-19 20:11:35+00:00,2521.642,0.64,1.06,7.54,8.0,-0.05,0.1,-0.08,GPS_Atti,1.0,0.0,0.0,0.0,20.0,10.0,73.0,14.0,False,0.031999998,0.0,0.0,0.031999998,0.0,0.031999998,0.0019999999,0.98888844,0.0019999999,0.0019999999
519.513,-106.2212885520972,39.95897070342947,,-7.062562859466114,6.487999751812624,40.83755414077454,0.12744808,0.10469468,-1.0334159,1.0464953,-0.703824,2.0110152,6.269067,-0.052430734,0.122723095,-0.026978528,0.13615352,1517.0,65.0,9.546336120395864,0.2774505114112742,0.2710275321085902,-0.1765760477526896,-0.0542459491136855,-0.0260392643634839,-0.0722891691878159,False,5.1535683393349245,-3.984503510262584,-18.496553868736328,1.1382277580878977,147.0119776185648,147.0119776185648,0.0,0.0,9003.0,-106.2212889,39.9589711,2018-06-19 20:11:35+00:00,2521.642,0.64,1.06,7.54,8.0,-0.05,0.1,-0.08,GPS_Atti,1.0,0.0,0.0,0.0,20.0,10.0,73.0,14.0,False,0.031999998,0.0,0.0,0.031999998,0.0,0.031999998,0.0019999999,0.98888844,0.0019999999,0.0019999999
519.554,-106.2212885520972,39.95897070342947,,-7.062562859466114,6.487999751812624,40.83755414077454,0.12744808,0.10469468,-1.0334159,1.0464953,-0.703824,2.0110152,6.269067,-0.052430734,0.122723095,-0.026978528,0.13615352,1517.0,65.0,9.546336120395864,0.2774505114112742,0.2710275321085902,-0.1765760477526896,-0.0542459491136855,-0.0260392643634839,-0.0722891691878159,False,5.1535683393349245,-3.984503510262584,-18.496553868736328,1.1382277580878977,147.0119776185648,147.0119776185648,0.0,0.0,9003.0,-106.2212888,39.9589708,2018-06-19 20:11:36+00:00,2521.628,0.64,1.06,7.54,8.0,-0.13,0.06,-0.04,GPS_Atti,1.0,0.0,0.0,0.0,20.0,10.0,73.0,14.0,False,0.031999998,0.0,0.0,0.031999998,0.0,0.031999998,0.0019999999,0.9892045,0.0019999999,0.0019999999
519.587,-106.2212884655756,39.95897060421163,,-7.11545537202831,6.827660570635553,40.92384438836183,0.116174206,0.10944302,-1.0103163,1.0228456,0.3902703,1.4119748,1.5516,-0.0384607,0.11443392,-0.057841945,0.13386576,1518.0,65.04,9.813335864014952,0.2729098229252429,0.2828752505173071,-0.180813447509422,-0.0682159814480132,-0.0177500911180539,-0.041425751875313,False,5.324571591650056,-4.000167798349139,-18.22755635725184,1.151497937279608,146.24043705608798,146.24043705608798,0.0,0.0,9043.0,-106.2212888,39.9589708,2018-06-19 20:11:36+00:00,2521.628,0.64,1.06,7.54,8.0,-0.13,0.06,-0.04,GPS_Atti,1.0,0.0,0.0,0.0,20.0,10.0,73.0,14.0,False,0.031999998,0.0,0.0,0.031999998,0.0,0.031999998,0.0019999999,0.9892045,0.0019999999,0.0019999999
519.674,-106.2212884655756,39.95897060421163,,-7.11545537202831,6.827660570635553,40.92384438836183,0.116174206,0.10944302,-1.0103163,1.0228456,0.3902703,1.4119748,1.5516,-0.0384607,0.11443392,-0.057841945,0.13386576,1518.0,65.04,9.813335864014952,0.2729098229252429,0.2828752505173071,-0.180813447509422,-0.0682159814480132,-0.0177500911180539,-0.041425751875313,False,5.324571591650056,-4.000167798349139,-18.22755635725184,1.151497937279608,146.24043705608798,146.24043705608798,0.0,0.0,9043.0,-106.2212888,39.9589708,2018-06-19 20:11:36+00:00,2521.628,0.64,1.06,7.54,8.0,-0.13,0.06,-0.04,GPS_Atti,1.0,0.0,0.0,0.0,20.0,10.0,73.0,14.0,False,0.031999998,0.0,0.0,0.031999998,0.0,0.031999998,0.0019999999,0.9892045,0.0019999999,0.0019999999
519.713,-106.22128833507816,39.95897058586884,,-7.25202172826942,6.968406515327819,40.955375254443986,0.111090474,0.11211434,-0.9915197,1.004003,-2.776563,0.45356047,3.239988,-0.07493382,0.057555854,-0.0626055,0.113345504,1523.0,65.04,10.00642170096931,0.2672380205507068,0.2914778885538709,-0.1868380252510633,-0.0317428636792487,0.0391279764349894,-0.0366621970936377,False,5.4178825135832085,-4.11952612449204,-18.172752920909943,1.162805885058138,100.39136866513176,100.39136866513176,0.0,0.0,9083.0,-106.2212888,39.9589708,2018-06-19 20:11:36+00:00,2521.628,0.64,1.06,7.54,8.0,-0.13,0.06,-0.04,GPS_Atti,1.0,0.0,0.0,0.0,20.0,10.0,73.0,14.0,False,0.031999998,0.0,0.0,0.031999998,0.0,0.031999998,0.0019999999,0.9892045,0.0019999999,0.0019999999
519.754,-106.22128833507816,39.95897058586884,,-7.25202172826942,6.968406515327819,40.955375254443986,0.111090474,0.11211434,-0.9915197,1.004003,-2.776563,0.45356047,3.239988,-0.07493382,0.057555854,-0.0626055,0.113345504,1523.0,65.04,10.00642170096931,0.2672380205507068,0.2914778885538709,-0.1868380252510633,-0.0317428636792487,0.0391279764349894,-0.0366621970936377,False,5.4178825135832085,-4.11952612449204,-18.172752920909943,1.162805885058138,100.39136866513176,100.39136866513176,0.0,0.0,9083.0,-106.2212886,39.9589707,2018-06-19 20:11:36+00:00,2521.667,0.64,1.06,7.54,8.0,-0.05,0.08,-0.09,GPS_Atti,1.0,0.0,0.0,0.0,20.0,10.0,73.0,14.0,False,0.031999998,0.0,0.0,0.031999998,0.0,0.031999998,0.0019999999,0.9888958,0.0019999999,0.0019999999
519.787,-106.2212882267474,39.95897057065266,,-6.941020130431512,6.606337396726755,40.919904579432774,0.13110165,0.11316107,-1.0251937,1.0397187,2.7629273,-3.3770897,5.4564986,-0.06842687,0.046321537,-0.04787977,0.09550075,1518.0,65.05,9.538282235865342,0.260071736095,0.2966704901026133,-0.1923609400848818,-0.0382498133424109,0.0503622934098677,-0.0513879269167502,False,5.27174173783078,-4.120207739810212,-18.25620224933732,1.17219281251479,100.38412598572474,100.38412598572474,0.0,0.0,9123.0,-106.2212886,39.9589707,2018-06-19 20:11:36+00:00,2521.667,0.64,1.06,7.54,8.0,-0.05,0.08,-0.09,GPS_Atti,1.0,0.0,0.0,0.0,20.0,10.0,73.0,14.0,False,0.031999998,0.0,0.0,0.031999998,0.0,0.031999998,0.0019999999,0.9888958,0.0019999999,0.0019999999
519.872,-106.2212882267474,39.95897057065266,,-6.941020130431512,6.606337396726755,40.919904579432774,0.13110165,0.11316107,-1.0251937,1.0397187,2.7629273,-3.3770897,5.4564986,-0.06842687,0.046321537,-0.04787977,0.09550075,1518.0,65.05,9.538282235865342,0.260071736095,0.2966704901026133,-0.1923609400848818,-0.0382498133424109,0.0503622934098677,-0.0513879269167502,False,5.27174173783078,-4.120207739810212,-18.25620224933732,1.17219281251479,100.38412598572474,100.38412598572474,0.0,0.0,9123.0,-106.2212886,39.9589707,2018-06-19 20:11:36+00:00,2521.667,0.64,1.06,7.54,8.0,-0.05,0.08,-0.09,GPS_Atti,1.0,0.0,0.0,0.0,20.0,10.0,73.0,14.0,False,0.031999998,0.0,0.0,0.031999998,0.0,0.031999998,0.0019999999,0.9888958,0.0019999999,0.0019999999
519.913,-106.22128828109156,39.95897044892321,,-6.826207668468223,6.368611809823953,40.89581248126642,0.13401578,0.11536841,-1.0158302,1.0311067,-0.0056693903,0.7668103,2.2842717,-0.023859933,0.04980179,-0.06801551,0.08761064,1521.0,65.01,9.295075697433914,0.2554585225014705,0.3014754830506518,-0.1981542892851848,-0.0469068567943104,0.0079578010856136,-0.005244564906363,False,5.141259629549495,-3.982378502570583,-18.527542197524554,1.186499067047824,-161.10938489722005,-161.10938489722005,0.0,0.0,9163.0,-106.2212886,39.9589707,2018-06-19 20:11:36+00:00,2521.667,0.64,1.06,7.54,8.0,-0.05,0.08,-0.09,GPS_Atti,1.0,0.0,0.0,0.0,20.0,10.0,73.0,14.0,False,0.031999998,0.0,0.0,0.031999998,0.0,0.031999998,0.0019999999,0.9888958,0.0019999999,0.0019999999
519.951,-106.22128828109156,39.95897044892321,,-6.826207668468223,6.368611809823953,40.89581248126642,0.13401578,0.11536841,-1.0158302,1.0311067,-0.0056693903,0.7668103,2.2842717,-0.023859933,0.04980179,-0.06801551,0.08761064,1521.0,65.01,9.295075697433914,0.2554585225014705,0.3014754830506518,-0.1981542892851848,-0.0469068567943104,0.0079578010856136,-0.005244564906363,False,5.141259629549495,-3.982378502570583,-18.527542197524554,1.186499067047824,-161.10938489722005,-161.10938489722005,0.0,0.0,9163.0,-106.2212886,39.9589705,2018-06-19 20:11:36+00:00,2521.689,0.66,1.09,7.55,8.0,-0.07,0.05,-0.11,GPS_Atti,1.0,0.0,0.0,0.0,20.0,10.0,73.0,14.0,False,0.031999998,0.0,0.0,0.031999998,0.0,0.031999998,0.0019999999,0.9893504,0.0019999999,0.0019999999
519.987,-106.22128826250012,39.958970368881936,,-6.58118029547656,6.546700564758666,40.92037068948283,0.12855256,0.12139558,-0.9959268,1.0115002,1.0179511,0.16371374,6.261953,-0.010974646,0.055679657,-0.07325957,0.09266947,1529.0,64.99,9.242656753315083,0.2537161557296201,0.3067514867630763,-0.205220630012036,-0.0597921441983708,0.002079933744572,-5.035555406401881e-07,False,5.187802869767893,-3.931745880110825,-18.32622964295365,1.1955392081570526,169.90493497160878,169.90493497160878,0.0,0.0,9203.0,-106.2212886,39.9589705,2018-06-19 20:11:36+00:00,2521.689,0.66,1.09,7.55,8.0,-0.07,0.05,-0.11,GPS_Atti,1.0,0.0,0.0,0.0,20.0,10.0,73.0,14.0,False,0.031999998,0.0,0.0,0.031999998,0.0,0.031999998,0.0019999999,0.9893504,0.0019999999,0.0019999999
520.074,-106.22128826250012,39.958970368881936,,-6.58118029547656,6.546700564758666,40.92037068948283,0.12855256,0.12139558,-0.9959268,1.0115002,1.0179511,0.16371374,6.261953,-0.010974646,0.055679657,-0.07325957,0.09266947,1529.0,64.99,9.242656753315083,0.2537161557296201,0.3067514867630763,-0.205220630012036,-0.0597921441983708,0.002079933744572,-5.035555406401881e-07,False,5.187802869767893,-3.931745880110825,-18.32622964295365,1.1955392081570526,169.90493497160878,169.90493497160878,0.0,0.0,9203.0,-106.2212886,39.9589705,2018-06-19 20:11:36+00:00,2521.689,0.66,1.09,7.55,8.0,-0.07,0.05,-0.11,GPS_Atti,1.0,0.0,0.0,0.0,20.0,10.0,73.0,14.0,False,0.031999998,0.0,0.0,0.031999998,0.0,0.031999998,0.0019999999,0.9893504,0.0019999999,0.0019999999
520.113,-106.22128820922856,39.95897035866833,,-6.546696360423504,6.583703273064857,40.89643434837141,0.12131713,0.109602064,-0.99175155,1.0051376,2.9262257,1.9312729,3.5278637,-0.008594047,0.0540301,-0.08774835,0.10340639,1517.0,64.99,9.244419782200747,0.2527373627715121,0.312238983524324,-0.2132739740759461,-0.062172742534829,0.0037294885634406,0.0144882754528478,False,5.292590560251483,-3.7344648204218487,-18.036870341760505,1.2002195009223642,104.04334186442324,104.04334186442324,0.0,0.0,9243.0,-106.2212886,39.9589705,2018-06-19 20:11:36+00:00,2521.689,0.66,1.09,7.55,8.0,-0.07,0.05,-0.11,GPS_Atti,1.0,0.0,0.0,0.0,20.0,10.0,73.0,14.0,False,0.031999998,0.0,0.0,0.031999998,0.0,0.031999998,0.0019999999,0.9893504,0.0019999999,0.0019999999
520.154,-106.22128820922856,39.95897035866833,,-6.546696360423504,6.583703273064857,40.89643434837141,0.12131713,0.109602064,-0.99175155,1.0051376,2.9262257,1.9312729,3.5278637,-0.008594047,0.0540301,-0.08774835,0.10340639,1517.0,64.99,9.244419782200747,0.2527373627715121,0.312238983524324,-0.2132739740759461,-0.062172742534829,0.0037294885634406,0.0144882754528478,False,5.292590560251483,-3.7344648204218487,-18.036870341760505,1.2002195009223642,104.04334186442324,104.04334186442324,0.0,0.0,9243.0,-106.2212885,39.9589705,2018-06-19 20:11:36+00:00,2521.7,0.66,1.09,7.56,8.0,0.0,0.03,-0.1,GPS_Atti,1.0,0.0,0.0,0.0,20.0,10.0,73.0,14.0,False,0.031999998,0.0,0.0,0.031999998,0.0,0.031999998,0.0019999999,0.98929864,0.0019999999,0.0019999999
520.187,-106.22128816060486,39.95897035700081,,-6.357241677791595,6.7191038351401815,40.934405667020094,0.113308474,0.10042001,-0.98358655,0.99517107,3.3209555,-0.5972456,3.4190354,-0.0013895035,0.05582391,-0.08010925,0.09765107,1520.0,65.03,9.210267593566,0.2522383071031697,0.3177303431693445,-0.2216648051448828,-0.0326759695909777,-0.0215986442022384,-0.1656189808111252,False,5.359275640255873,-3.4221820211007383,-18.084014145406172,1.2043679144839974,92.56179698282968,92.56179698282968,0.0,0.0,9283.0,-106.2212885,39.9589705,2018-06-19 20:11:36+00:00,2521.7,0.66,1.09,7.56,8.0,0.0,0.03,-0.1,GPS_Atti,1.0,0.0,0.0,0.0,20.0,10.0,73.0,14.0,False,0.031999998,0.0,0.0,0.031999998,0.0,0.031999998,0.0019999999,0.98929864,0.0019999999,0.0019999999
520.272,-106.22128816060486,39.95897035700081,,-6.357241677791595,6.7191038351401815,40.934405667020094,0.113308474,0.10042001,-0.98358655,0.99517107,3.3209555,-0.5972456,3.4190354,-0.0013895035,0.05582391,-0.08010925,0.09765107,1520.0,65.03,9.210267593566,0.2522383071031697,0.3177303431693445,-0.2216648051448828,-0.0326759695909777,-0.0215986442022384,-0.1656189808111252,False,5.359275640255873,-3.4221820211007383,-18.084014145406172,1.2043679144839974,92.56179698282968,92.56179698282968,0.0,0.0,9283.0,-106.2212885,39.9589705,2018-06-19 20:11:36+00:00,2521.7,0.66,1.09,7.56,8.0,0.0,0.03,-0.1,GPS_Atti,1.0,0.0,0.0,0.0,20.0,10.0,73.0,14.0,False,0.031999998,0.0,0.0,0.031999998,0.0,0.031999998,0.0019999999,0.98929864,0.0019999999,0.0019999999
520.313,-106.2212883054034,39.9589703196899,,-6.361916483159856,6.784673132750565,40.944766645245195,0.122896835,0.086899035,-0.9807586,0.99224114,-0.2403408,0.68879735,4.2960997,0.032570247,0.045225717,-0.061094165,0.08269633,1519.0,65.03,9.26059248816549,0.253796963635267,0.3227815910588134,-0.2287232523890452,-0.0666357196770469,-0.0110004503481448,-0.1846340694885316,False,5.36385211171546,-3.268188890470114,-17.899957990208122,1.217387983258614,-108.58101838245076,-108.58101838245076,0.0,0.0,9323.0,-106.2212885,39.9589705,2018-06-19 20:11:36+00:00,2521.7,0.66,1.09,7.56,8.0,0.0,0.03,-0.1,GPS_Atti,1.0,0.0,0.0,0.0,20.0,10.0,73.0,14.0,False,0.031999998,0.0,0.0,0.031999998,0.0,0.031999998,0.0019999999,0.98929864,0.0019999999,0.0019999999
520.354,-106.2212883054034,39.9589703196899,,-6.361916483159856,6.784673132750565,40.944766645245195,0.122896835,0.086899035,-0.9807586,0.99224114,-0.2403408,0.68879735,4.2960997,0.032570247,0.045225717,-0.061094165,0.08269633,1519.0,65.03,9.26059248816549,0.253796963635267,0.3227815910588134,-0.2287232523890452,-0.0666357196770469,-0.0110004503481448,-0.1846340694885316,False,5.36385211171546,-3.268188890470114,-17.899957990208122,1.217387983258614,-108.58101838245076,-108.58101838245076,0.0,0.0,9323.0,-106.2212885,39.9589705,2018-06-19 20:11:36+00:00,2521.705,0.66,1.09,7.56,8.0,0.02,0.02,-0.09,GPS_Atti,1.0,0.0,0.0,0.0,20.0,10.0,73.0,14.0,False,0.031999998,0.0,0.0,0.031999998,0.0,0.031999998,0.0019999999,0.9892311,0.0019999999,0.0019999999
520.387,-106.22128831291148,39.95897029842893,,-6.135169535886894,6.956050592939726,40.95023104440286,0.11701492,0.09495909,-0.9884216,0.9998435,3.1290588,-2.2094984,4.009105,0.04229673,0.04269662,-0.058429196,0.083821155,1501.0,65.03,9.23560838900632,0.2575393985611924,0.3271766347078966,-0.2346979614299016,-0.0763622030518809,-0.0084713544898093,-0.1872990378599228,False,5.28783562242279,-3.123788251201617,-17.6291773069604,1.219837171828844,-164.85399038151292,-164.85399038151292,0.0,0.0,9363.0,-106.2212885,39.9589705,2018-06-19 20:11:36+00:00,2521.705,0.66,1.09,7.56,8.0,0.02,0.02,-0.09,GPS_Atti,1.0,0.0,0.0,0.0,20.0,10.0,73.0,14.0,False,0.031999998,0.0,0.0,0.031999998,0.0,0.031999998,0.0019999999,0.9892311,0.0019999999,0.0019999999
520.472,-106.22128831291148,39.95897029842893,,-6.135169535886894,6.956050592939726,40.95023104440286,0.11701492,0.09495909,-0.9884216,0.9998435,3.1290588,-2.2094984,4.009105,0.04229673,0.04269662,-0.058429196,0.083821155,1501.0,65.03,9.23560838900632,0.2575393985611924,0.3271766347078966,-0.2346979614299016,-0.0763622030518809,-0.0084713544898093,-0.1872990378599228,False,5.28783562242279,-3.123788251201617,-17.6291773069604,1.219837171828844,-164.85399038151292,-164.85399038151292,0.0,0.0,9363.0,-106.2212885,39.9589705,2018-06-19 20:11:36+00:00,2521.705,0.66,1.09,7.56,8.0,0.02,0.02,-0.09,GPS_Atti,1.0,0.0,0.0,0.0,20.0,10.0,73.0,14.0,False,0.031999998,0.0,0.0,0.031999998,0.0,0.031999998,0.0019999999,0.9892311,0.0019999999,0.0019999999
520.513,-106.22128827823131,39.95897034782941,,-5.829719834191035,7.184200032598949,40.94406843976142,0.12084661,0.09401418,-0.98607665,0.9978926,3.8426456,-0.41935483,4.495392,0.05421141,0.027048038,-0.026964746,0.06631418,1496.0,65.04,9.213836878086129,0.2623665727583955,0.3306651447501423,-0.2389692221843233,-0.0882768846951285,0.007177228460425,-0.2187634879212441,False,5.1563448250990405,-2.7750753713282705,-17.455204944984644,1.2260750346180391,28.284777547856027,28.284777547856027,0.0,0.0,9403.0,-106.2212885,39.9589705,2018-06-19 20:11:36+00:00,2521.705,0.66,1.09,7.56,8.0,0.02,0.02,-0.09,GPS_Atti,1.0,0.0,0.0,0.0,20.0,10.0,73.0,14.0,False,0.031999998,0.0,0.0,0.031999998,0.0,0.031999998,0.0019999999,0.9892311,0.0019999999,0.0019999999
