clock_offset,imu_longitude,imu_latitude,imu_rel_height,roll,pitch,yaw,accel_x,accel_y,accel_z,accel_composite,gyro_x,gyro_z,gyro_composite,vel_north,vel_east,vel_down,vel_composite,compass_interference,temperature,tilt_inclination,imu_pos_north,imu_pos_east,imu_pos_down,delta_vel_north,delta_vel_east,delta_vel_down,pos_error,total_gyro_z,total_gyro_x,total_gyro_y,dist_travelled,direction_travel_magnetic,direction_travel_true,imu_sensor_status,imu_filter_status,altitude_counter,gps_longitude,gps_latitude,gps_timestamp,gps_heightMSL,gps_hdop,gps_pdop,gps_speed_accuracy,num_satellites,gps_vel_north,gps_vel_east,gps_vel_down,control_mode,motor_state,battery_very_low,battery_level1,battery_level2,batter_go_home,batter_land,batter_go_home_time,batter_land_time,oa_emergency_brake,hover_point_uncertainty1,hover_point_uncertainty2,hover_point_uncertainty3,hover_point_uncertainty4,hover_point_uncertainty5,hover_point_uncertainty6,velocity_uncertainty1,velocity_uncertainty3,velocity_uncertainty4,velocity_uncertainty6
-344.35,,,,,,,,,,,,,,,,,,,,,,,,,,,,,,,,,,,,,,,,,,,,,,,,,,,,,,,,,,,,,,,,,,,
0.0,-106.21645369611862,39.961194018533035,-2.224853531250119,1.0977243478920828,-2.1533991327650197,-117.8473374872386,-0.037370984,-0.019998778,-1.0081841,1.0090747,0.4099332,0.1757251,0.4460096,0.0015750516,0.003628103,0.04846735,0.048628468,1527.0,64.98,2.416580026633402,0.0,0.0,0.0,,,,False,-574.0871391824719,-562.3419943011494,-67.73353168610183,227.3194764550088,,,0.0,0.0,64475.0,-106.2164536,39.961194,2018-06-19 20:08:27+00:00,2485.657,0.75,1.27,7.3,8.0,0.0,0.0,0.02,GPS_Atti,0.0,0.0,0.0,0.0,15.0,10.0,0.0,0.0,,0.0016894911,0.0,0.0,0.0016895046,0.0,0.0016895453,0.00010559319,0.340574,0.00010559404,0.000105596584
0.039,-106.21645369245395,39.96119402595874,-0.5461423906249365,1.1192893077642834,-2.15538419266072,-117.84631036744832,-0.036579482,-0.020031143,-1.0084119,1.0092739,0.3801109,0.061249014,0.38565212,0.0038667524,0.0017415346,0.043273862,0.043481167,1534.0,64.97,2.428194335748772,0.0,0.0,0.0,,,,False,-574.0747943699499,-562.3008381342441,-67.7323684396598,227.32035925406652,,,0.0,0.0,64515.0,-106.2164536,39.961194,2018-06-19 20:08:27+00:00,2485.657,0.75,1.27,7.3,8.0,0.0,0.0,0.02,GPS_Atti,0.0,0.0,0.0,0.0,15.0,10.0,0.0,0.0,,0.0016894911,0.0,0.0,0.0016895046,0.0,0.0016895453,0.00010559319,0.340574,0.00010559404,0.000105596584
0.101,-106.21645369245395,39.96119402595874,-0.5461423906249365,1.1192893077642834,-2.15538419266072,-117.84631036744832,-0.036579482,-0.020031143,-1.0084119,1.0092739,0.3801109,0.061249014,0.38565212,0.0038667524,0.0017415346,0.043273862,0.043481167,1534.0,64.97,2.428194335748772,0.0,0.0,0.0,,,,False,-574.0747943699499,-562.3008381342441,-67.7323684396598,227.32035925406652,,,0.0,0.0,64515.0,-106.2164536,39.961194,2018-06-19 20:08:27+00:00,2485.657,0.75,1.27,7.3,8.0,0.0,0.0,0.02,GPS_Atti,0.0,0.0,0.0,0.0,15.0,10.0,0.0,0.0,,0.0016894911,0.0,0.0,0.0016895046,0.0,0.0016895453,0.00010559319,0.340574,0.00010559404,0.000105596584
0.143,-106.21645362700411,39.96119402725498,-0.9597166093749364,1.1199765118286515,-2.1770453240893075,-118.033396219192,-0.030232202,-0.039987817,-1.0113595,1.012601,-1.2970202,-16.225428,16.318064,0.0048563336,-0.002386897,0.060550015,0.06079133,1525.0,65.0,2.447746157922368,0.0002529834429623179,-0.00012434183826570688,0.0031542625830525,,,,False,-574.9168431032681,-562.3486031546134,-67.79134463723459,227.32593931568837,88.51986357481952,88.51986357481952,0.0,0.0,64555.0,-106.2164536,39.961194,2018-06-19 20:08:27+00:00,2485.657,0.75,1.27,7.3,8.0,0.0,0.0,0.02,ASST_TAKEOFF,1.0,0.0,0.0,0.0,15.0,10.0,0.0,0.0,False,0.0016894911,0.0,0.0,0.0016895046,0.0,0.0016895453,0.00010559319,0.340574,0.00010559404,0.000105596584
0.186,-106.21645362700411,39.96119402725498,-0.9597166093749364,1.1199765118286515,-2.1770453240893075,-118.033396219192,-0.030232202,-0.039987817,-1.0113595,1.012601,-1.2970202,-16.225428,16.318064,0.0048563336,-0.002386897,0.060550015,0.06079133,1525.0,65.0,2.447746157922368,0.0002529834429623179,-0.00012434183826570688,0.0031542625830525,,,,False,-574.9168431032681,-562.3486031546134,-67.79134463723459,227.32593931568837,88.51986357481952,88.51986357481952,0.0,0.0,64555.0,-106.2164536,39.961194,2018-06-19 20:08:27+00:00,2485.664,0.75,1.27,7.3,8.0,0.01,0.0,0.01,ASST_TAKEOFF,1.0,0.0,0.0,0.0,15.0,10.0,0.0,0.0,False,0.001689161,0.0,0.0,0.0016891538,0.0,0.0016891042,0.000105572566,0.34189504,0.000105572115,0.000105569015
0.221,-106.21645362383109,39.961194033075046,-0.7087400468749365,1.1243535672124638,-2.158394032530052,-117.57170905993164,-0.08764821,0.0973224,-1.012911,1.0213435,1.2160132,9.2186,9.307477,-0.0038298126,-0.00113953,0.05942085,0.059555043,1548.0,64.95,2.4331966279964825,0.0003064741826577233,-0.00030809959726596503,0.0094057961805447,,,,False,-575.2819602208124,-562.3528243295085,-67.8301455733682,227.3266407091995,,,0.0,0.0,64595.0,-106.2164536,39.961194,2018-06-19 20:08:27+00:00,2485.664,0.75,1.27,7.3,8.0,0.01,0.0,0.01,ASST_TAKEOFF,1.0,0.0,0.0,0.0,16.0,10.0,35.0,0.0,False,0.001689161,0.0,0.0,0.0016891538,0.0,0.0016891042,0.000105572566,0.34189504,0.000105572115,0.000105569015
0.311,-106.21645362383109,39.961194033075046,-0.7087400468749365,1.1243535672124638,-2.158394032530052,-117.57170905993164,-0.08764821,0.0973224,-1.012911,1.0213435,1.2160132,9.2186,9.307477,-0.0038298126,-0.00113953,0.05942085,0.059555043,1548.0,64.95,2.4331966279964825,0.0003064741826577233,-0.00030809959726596503,0.0094057961805447,,,,False,-575.2819602208124,-562.3528243295085,-67.8301455733682,227.3266407091995,,,0.0,0.0,64595.0,-106.2164536,39.961194,2018-06-19 20:08:27+00:00,2485.664,0.75,1.27,7.3,8.0,0.01,0.0,0.01,ASST_TAKEOFF,1.0,0.0,0.0,0.0,16.0,10.0,35.0,0.0,False,0.001689161,0.0,0.0,0.0016891538,0.0,0.0016891042,0.000105572566,0.34189504,0.000105572115,0.000105569015
0.352,-106.21645362204345,39.961194037396936,-1.1552732499999363,1.1272392590249392,-2.1635152429893445,-117.95014416369835,-0.015505745,-0.0664569,-1.0039469,1.0062635,-1.0291716,-17.750393,17.796913,0.015321984,-0.0023712534,0.035928946,0.03913151,1528.0,64.97,2.4390680503867395,0.0009053170335207028,-0.000491042184567192,0.0143743562656482,,,,False,-575.7265413955552,-562.3430882441779,-67.84897530996624,227.32714485465996,,,0.0,0.0,64635.0,-106.2164536,39.961194,2018-06-19 20:08:27+00:00,2485.664,0.75,1.27,7.3,8.0,0.01,0.0,0.01,ASST_TAKEOFF,1.0,0.0,0.0,0.0,16.0,10.0,35.0,0.0,False,0.001689161,0.0,0.0,0.0016891538,0.0,0.0016891042,0.000105572566,0.34189504,0.000105572115,0.000105569015
0.389,-106.21645362204345,39.961194037396936,-1.1552732499999363,1.1272392590249392,-2.1635152429893445,-117.95014416369835,-0.015505745,-0.0664569,-1.0039469,1.0062635,-1.0291716,-17.750393,17.796913,0.015321984,-0.0023712534,0.035928946,0.03913151,1528.0,64.97,2.4390680503867395,0.0009053170335207028,-0.000491042184567192,0.0143743562656482,,,,False,-575.7265413955552,-562.3430882441779,-67.84897530996624,227.32714485465996,,,0.0,0.0,64635.0,-106.2164536,39.961194,2018-06-19 20:08:27+00:00,2485.659,0.75,1.27,7.3,8.0,-0.01,0.0,0.03,ASST_TAKEOFF,1.0,0.0,0.0,0.0,16.0,10.0,35.0,0.0,False,0.0016886429,0.0,0.0,0.0016885486,0.0,0.0016885856,0.00010554018,0.34150717,0.00010553429,0.0001055366
0.429,-106.21645362128368,39.96119404194355,-1.6176755937499363,1.1064775535953233,-2.1916771496534464,-117.8026675382875,-0.06378325,0.024505196,-1.0134343,1.0157351,0.3906642,5.234946,5.2559867,0.008703623,-0.0032450943,0.04109267,0.042129457,1542.0,64.97,2.4546598311763232,0.0021550621201882,-0.0007831889367615474,0.0183808060621117,-0.0034765720608289,0.0048053928809409,0.0010989488214647,False,-576.3775600616223,-562.3763016187035,-67.90265899212373,227.32765454509945,,,0.0,0.0,64675.0,-106.2164536,39.961194,2018-06-19 20:08:27+00:00,2485.659,0.75,1.27,7.3,8.0,-0.01,0.0,0.03,ASST_TAKEOFF,1.0,0.0,0.0,0.0,16.0,10.0,35.0,0.0,False,0.0016886429,0.0,0.0,0.0016885486,0.0,0.0016885856,0.00010554018,0.34150717,0.00010553429,0.0001055366
0.518,-106.21645362128368,39.96119404194355,-1.6176755937499363,1.1064775535953233,-2.1916771496534464,-117.8026675382875,-0.06378325,0.024505196,-1.0134343,1.0157351,0.3906642,5.234946,5.2559867,0.008703623,-0.0032450943,0.04109267,0.042129457,1542.0,64.97,2.4546598311763232,0.0021550621201882,-0.0007831889367615474,0.0183808060621117,-0.0034765720608289,0.0048053928809409,0.0010989488214647,False,-576.3775600616223,-562.3763016187035,-67.90265899212373,227.32765454509945,,,0.0,0.0,64675.0,-106.2164536,39.961194,2018-06-19 20:08:27+00:00,2485.659,0.75,1.27,7.3,8.0,-0.01,0.0,0.03,ASST_TAKEOFF,1.0,0.0,0.0,0.0,16.0,10.0,35.0,0.0,False,0.0016886429,0.0,0.0,0.0016885486,0.0,0.0016885856,0.00010554018,0.34150717,0.00010553429,0.0001055366
0.56,-106.21645361980887,39.9611940442364,-1.2768552812499363,1.0920993956949565,-2.1308503481913132,-117.8983748434956,-0.027325,-0.04557693,-1.00454,1.0059446,0.25085306,-9.995104,10.002689,0.0028996342,-0.0012831413,0.01890599,0.01917005,1486.0,64.99,2.3939520991592897,0.002759339413032,-0.0010190115114276,0.0215054311681228,0.0023274167199973,0.0028434398742562,0.0232856304496919,False,-576.6254607492679,-562.342892524768,-67.93176846548168,227.32793879915377,,,0.0,0.0,64715.0,-106.2164536,39.961194,2018-06-19 20:08:27+00:00,2485.659,0.75,1.27,7.3,8.0,-0.01,0.0,0.03,ASST_TAKEOFF,1.0,0.0,0.0,0.0,16.0,10.0,35.0,0.0,False,0.0016886429,0.0,0.0,0.0016885486,0.0,0.0016885856,0.00010554018,0.34150717,0.00010553429,0.0001055366
0.602,-106.21645361980887,39.9611940442364,-1.2768552812499363,1.0920993956949565,-2.1308503481913132,-117.8983748434956,-0.027325,-0.04557693,-1.00454,1.0059446,0.25085306,-9.995104,10.002689,0.0028996342,-0.0012831413,0.01890599,0.01917005,1486.0,64.99,2.3939520991592897,0.002759339413032,-0.0010190115114276,0.0215054311681228,0.0023274167199973,0.0028434398742562,0.0232856304496919,False,-576.6254607492679,-562.342892524768,-67.93176846548168,227.32793879915377,,,0.0,0.0,64715.0,-106.2164536,39.961194,2018-06-19 20:08:27+00:00,2485.665,0.75,1.27,7.3,8.0,-0.01,0.0,0.02,ASST_TAKEOFF,1.0,0.0,0.0,0.0,16.0,10.0,35.0,0.0,False,0.0016879053,0.0,0.0,0.0016878967,0.0,0.0016878969,0.00010549408,0.34086338,0.00010549354,0.00010549356
0.637,-106.21645360146329,39.9611940290593,-1.2663572343749363,1.100561170319835,-2.166210740823706,-117.82919205578654,-0.047891535,-0.012782514,-1.0101298,1.0113453,0.4667554,11.030853,11.049451,-0.011467796,-0.004073608,0.01140815,0.016680842,1592.0,64.97,2.4292791942381573,0.0023131245745773,-0.0012979816364087,0.0230841384419022,0.0166948467252199,0.0056339067565446,0.030783470079342,False,-576.5715207342669,-562.3055207345132,-67.97015114025872,227.3302394092019,137.18497396955846,137.18497396955846,0.0,0.0,64755.0,-106.2164536,39.961194,2018-06-19 20:08:27+00:00,2485.665,0.75,1.27,7.3,8.0,-0.01,0.0,0.02,ASST_TAKEOFF,1.0,0.0,0.0,0.0,16.0,10.0,35.0,0.0,False,0.0016879053,0.0,0.0,0.0016878967,0.0,0.0016878969,0.00010549408,0.34086338,0.00010549354,0.00010549356
0.728,-106.21645360146329,39.9611940290593,-1.2663572343749363,1.100561170319835,-2.166210740823706,-117.82919205578654,-0.047891535,-0.012782514,-1.0101298,1.0113453,0.4667554,11.030853,11.049451,-0.011467796,-0.004073608,0.01140815,0.016680842,1592.0,64.97,2.4292791942381573,0.0023131245745773,-0.0012979816364087,0.0230841384419022,0.0166948467252199,0.0056339067565446,0.030783470079342,False,-576.5715207342669,-562.3055207345132,-67.97015114025872,227.3302394092019,137.18497396955846,137.18497396955846,0.0,0.0,64755.0,-106.2164536,39.961194,2018-06-19 20:08:27+00:00,2485.665,0.75,1.27,7.3,8.0,-0.01,0.0,0.02,ASST_TAKEOFF,1.0,0.0,0.0,0.0,16.0,10.0,35.0,0.0,False,0.0016879053,0.0,0.0,0.0016878967,0.0,0.0016878969,0.00010549408,0.34086338,0.00010549354,0.00010549356
0.768,-106.21645360005552,39.96119402984421,-1.9003904374999363,1.1121940172120894,-2.0628989271447975,-117.85212456396124,-0.027871925,-0.046232242,-1.0153458,1.0167799,0.8043829,-11.698093,11.856089,-0.0036847594,0.0017467039,-1.0262593e-05,0.00407781,1526.0,64.95,2.3431583876429696,0.0015235436422607,-0.001419233746521,0.0236780682845161,-0.0006200525588960261,0.0040423241141151,-0.10935405729794,False,-576.6062897938332,-562.2392832874592,-68.08439794483239,227.33038777731156,,,0.0,0.0,64795.0,-106.2164536,39.961194,2018-06-19 20:08:27+00:00,2485.665,0.75,1.27,7.3,8.0,-0.01,0.0,0.02,ASST_TAKEOFF,1.0,0.0,0.0,0.0,16.0,10.0,35.0,0.0,False,0.0016879053,0.0,0.0,0.0016878967,0.0,0.0016878969,0.00010549408,0.34086338,0.00010549354,0.00010549356
0.811,-106.21645360005552,39.96119402984421,-1.9003904374999363,1.1121940172120894,-2.0628989271447975,-117.85212456396124,-0.027871925,-0.046232242,-1.0153458,1.0167799,0.8043829,-11.698093,11.856089,-0.0036847594,0.0017467039,-1.0262593e-05,0.00407781,1526.0,64.95,2.3431583876429696,0.0015235436422607,-0.001419233746521,0.0236780682845161,-0.0006200525588960261,0.0040423241141151,-0.10935405729794,False,-576.6062897938332,-562.2392832874592,-68.08439794483239,227.33038777731156,,,0.0,0.0,64795.0,-106.2164536,39.961194,2018-06-19 20:08:27+00:00,2485.664,0.75,1.27,7.3,8.0,0.01,0.0,0.02,ASST_TAKEOFF,1.0,0.0,0.0,0.0,16.0,10.0,35.0,0.0,False,0.0016868942,0.0,0.0,0.0016868527,0.0,0.0016868785,0.00010543089,0.3413111,0.00010542829,0.00010542991
0.846,-106.21645359746344,39.96119403208821,-1.3771970781249363,1.1223313873948415,-2.009814927153731,-117.86264523443592,-0.039141804,0.0010805456,-1.0045154,1.0052783,1.13996,9.421302,9.607459,-0.0103645995,-0.0007580834,0.003111571,0.01084811,1529.0,65.01,2.30150360343606,0.0007916632821469705,-0.0013677330413273,0.0238396263160343,0.0060597875941871,0.0065471114055153,-0.1124758909641677,False,-576.7248958489595,-562.1379956455147,-68.09772329020744,227.33072104290449,,,0.0,0.0,64835.0,-106.2164536,39.961194,2018-06-19 20:08:27+00:00,2485.664,0.75,1.27,7.3,8.0,0.01,0.0,0.02,ASST_TAKEOFF,1.0,0.0,0.0,0.0,16.0,10.0,35.0,0.0,False,0.0016868942,0.0,0.0,0.0016868527,0.0,0.0016868785,0.00010543089,0.3413111,0.00010542829,0.00010542991
0.934,-106.21645359746344,39.96119403208821,-1.3771970781249363,1.1223313873948415,-2.009814927153731,-117.86264523443592,-0.039141804,0.0010805456,-1.0045154,1.0052783,1.13996,9.421302,9.607459,-0.0103645995,-0.0007580834,0.003111571,0.01084811,1529.0,65.01,2.30150360343606,0.0007916632821469705,-0.0013677330413273,0.0238396263160343,0.0060597875941871,0.0065471114055153,-0.1124758909641677,False,-576.7248958489595,-562.1379956455147,-68.09772329020744,227.33072104290449,,,0.0,0.0,64835.0,-106.2164536,39.961194,2018-06-19 20:08:27+00:00,2485.664,0.75,1.27,7.3,8.0,0.01,0.0,0.02,ASST_TAKEOFF,1.0,0.0,0.0,0.0,16.0,10.0,35.0,0.0,False,0.0016868942,0.0,0.0,0.0016868527,0.0,0.0016868785,0.00010543089,0.3413111,0.00010542829,0.00010542991
0.977,-106.2164535964579,39.96119403420844,-1.7946775468749363,1.152495656134763,-1.9504760221010675,-117.84245552667926,-0.02886968,-0.041993808,-1.0177095,1.0189846,-1.1947429,-6.6237025,7.3382764,0.0072857547,0.001648209,-0.0004717412,0.0074847415,1527.0,65.01,2.2650722154503877,0.0006312284797438394,-0.0013213496940043,0.0239771845899436,-0.0115905665937484,0.0041408189269613,-0.1088925786967302,False,-576.57911640464,-562.1408503130605,-68.17204782520604,227.3309718955416,,,0.0,0.0,64875.0,-106.2164536,39.961194,2018-06-19 20:08:27+00:00,2485.664,0.75,1.27,7.3,8.0,0.01,0.0,0.02,ASST_TAKEOFF,1.0,0.0,0.0,0.0,16.0,10.0,35.0,0.0,False,0.0016868942,0.0,0.0,0.0016868527,0.0,0.0016868785,0.00010543089,0.3413111,0.00010542829,0.00010542991
1.019,-106.2164535964579,39.96119403420844,-1.7946775468749363,1.152495656134763,-1.9504760221010675,-117.84245552667926,-0.02886968,-0.041993808,-1.0177095,1.0189846,-1.1947429,-6.6237025,7.3382764,0.0072857547,0.001648209,-0.0004717412,0.0074847415,1527.0,65.01,2.2650722154503877,0.0006312284797438394,-0.0013213496940043,0.0239771845899436,-0.0115905665937484,0.0041408189269613,-0.1088925786967302,False,-576.57911640464,-562.1408503130605,-68.17204782520604,227.3309718955416,,,0.0,0.0,64875.0,-106.2164535,39.961194,2018-06-19 20:08:28+00:00,2485.667,0.75,1.27,7.3,8.0,-0.01,0.01,0.01,ASST_TAKEOFF,1.0,0.0,0.0,0.0,16.0,10.0,35.0,0.0,False,0.0016859157,0.0,0.0,0.0016858991,0.0,0.0016858539,0.000105369734,0.34097117,0.000105368694,0.00010536587
1.054,-106.216453586827,39.961194036475234,-2.0378416093749365,1.0831883135065394,-1.8874025519039397,-117.87724974206888,-0.030889768,-0.0046868883,-1.0020236,1.0025105,1.7536968,4.349161,4.766217,0.0119926445,6.6601206e-05,-0.0023538214,0.012221638,1545.0,65.01,2.1757501964626793,0.0016337428902595,-0.0012321762110705,0.02383024981558,-0.0096324771519685,0.0035422902309725,-0.0038980101758323,False,-576.6973969987607,-562.111783619528,-68.36841252643681,227.3318305512631,,,0.0,0.0,64915.0,-106.2164535,39.961194,2018-06-19 20:08:28+00:00,2485.667,0.75,1.27,7.3,8.0,-0.01,0.01,0.01,ASST_TAKEOFF,1.0,0.0,0.0,0.0,16.0,10.0,35.0,0.0,False,0.0016859157,0.0,0.0,0.0016858991,0.0,0.0016858539,0.000105369734,0.34097117,0.000105368694,0.00010536587
1.145,-106.216453586827,39.961194036475234,-2.0378416093749365,1.0831883135065394,-1.8874025519039397,-117.87724974206888,-0.030889768,-0.0046868883,-1.0020236,1.0025105,1.7536968,4.349161,4.766217,0.0119926445,6.6601206e-05,-0.0023538214,0.012221638,1545.0,65.01,2.1757501964626793,0.0016337428902595,-0.0012321762110705,0.02383024981558,-0.0096324771519685,0.0035422902309725,-0.0038980101758323,False,-576.6973969987607,-562.111783619528,-68.36841252643681,227.3318305512631,,,0.0,0.0,64915.0,-106.2164535,39.961194,2018-06-19 20:08:28+00:00,2485.667,0.75,1.27,7.3,8.0,-0.01,0.01,0.01,ASST_TAKEOFF,1.0,0.0,0.0,0.0,16.0,10.0,35.0,0.0,False,0.0016859157,0.0,0.0,0.0016858991,0.0,0.0016858539,0.000105369734,0.34097117,0.000105368694,0.00010536587
1.185,-106.21645358975424,39.96119404231809,-2.3337400468749365,1.1712829884555056,-1.994154762237019,-117.84236313928268,-0.03248972,-0.029724862,-1.0029049,1.0038712,4.2805104,-1.0557343,5.722119,0.00972772,-0.000810042,-0.0025244944,0.010082548,1536.0,64.98,2.3122160315333997,0.0027655642619599,-0.0012709159936878,0.0235760468035,-0.0073675528045678,0.0044189334602484,-0.0037273371649615,False,-576.5257805930373,-561.7973485354086,-68.60289156250802,227.33252650219436,,,0.0,0.0,64955.0,-106.2164535,39.961194,2018-06-19 20:08:28+00:00,2485.667,0.75,1.27,7.3,8.0,-0.01,0.01,0.01,ASST_TAKEOFF,1.0,0.0,0.0,0.0,16.0,10.0,35.0,0.0,False,0.0016859157,0.0,0.0,0.0016858991,0.0,0.0016858539,0.000105369734,0.34097117,0.000105368694,0.00010536587
1.227,-106.21645358975424,39.96119404231809,-2.3337400468749365,1.1712829884555056,-1.994154762237019,-117.84236313928268,-0.03248972,-0.029724862,-1.0029049,1.0038712,4.2805104,-1.0557343,5.722119,0.00972772,-0.000810042,-0.0025244944,0.010082548,1536.0,64.98,2.3122160315333997,0.0027655642619599,-0.0012709159936878,0.0235760468035,-0.0073675528045678,0.0044189334602484,-0.0037273371649615,False,-576.5257805930373,-561.7973485354086,-68.60289156250802,227.33252650219436,,,0.0,0.0,64955.0,-106.2164535,39.961194,2018-06-19 20:08:28+00:00,2485.671,0.75,1.27,7.3,8.0,0.01,0.01,0.01,ASST_TAKEOFF,1.0,0.0,0.0,0.0,16.0,10.0,35.0,0.0,False,0.0016854105,0.0,0.0,0.001685363,0.0,0.0016853542,0.00010533816,0.3406714,0.00010533519,0.000105334635
1.262,-106.21645358993302,39.96119404465654,-1.6811521562499363,1.1302856998575894,-2.036482626877284,-117.87211672311643,-0.053783134,0.003713907,-1.0030061,1.0044539,2.4077463,2.310115,5.9620647,0.008991631,0.0014792837,-0.000435879,0.009122921,1529.0,65.0,2.328659920314681,0.003740149609495,-0.001236073273505,0.0234219209171033,-0.006631463381269,0.0021296077629009,-0.0058159526029311,False,-576.4604737789919,-561.4491379031023,-68.53556155781699,227.33278697150345,,,0.0,0.0,64995.0,-106.2164535,39.961194,2018-06-19 20:08:28+00:00,2485.671,0.75,1.27,7.3,8.0,0.01,0.01,0.01,ASST_TAKEOFF,1.0,0.0,0.0,0.0,16.0,10.0,35.0,0.0,False,0.0016854105,0.0,0.0,0.001685363,0.0,0.0016853542,0.00010533816,0.3406714,0.00010533519,0.000105334635
1.351,-106.21645358993302,39.96119404465654,-1.6811521562499363,1.1302856998575894,-2.036482626877284,-117.87211672311643,-0.053783134,0.003713907,-1.0030061,1.0044539,2.4077463,2.310115,5.9620647,0.008991631,0.0014792837,-0.000435879,0.009122921,1529.0,65.0,2.328659920314681,0.003740149609495,-0.001236073273505,0.0234219209171033,-0.006631463381269,0.0021296077629009,-0.0058159526029311,False,-576.4604737789919,-561.4491379031023,-68.53556155781699,227.33278697150345,,,0.0,0.0,64995.0,-106.2164535,39.961194,2018-06-19 20:08:28+00:00,2485.671,0.75,1.27,7.3,8.0,0.01,0.01,0.01,ASST_TAKEOFF,1.0,0.0,0.0,0.0,16.0,10.0,35.0,0.0,False,0.0016854105,0.0,0.0,0.001685363,0.0,0.0016853542,0.00010533816,0.3406714,0.00010533519,0.000105334635
1.393,-106.21645353961108,39.961194052046416,-2.1303709062499365,1.154753368265416,-1.990665011144102,-117.8511077268059,-0.045951568,-0.03003772,-1.0167711,1.018252,-1.0760143,-1.2071792,5.004723,0.013072427,0.0058142673,-0.00272517,0.0145643605,1528.0,65.02,2.3008820069120683,0.0048895437499361,-0.0008561266319535576,0.0232572507934225,-0.0075323719528751,0.0070617585285194,-0.00039952486008114655,False,-576.40301798069,-561.3797633125504,-68.0314451478349,227.3371538520996,79.1539783769882,79.1539783769882,0.0,0.0,65035.0,-106.2164535,39.961194,2018-06-19 20:08:28+00:00,2485.671,0.75,1.27,7.3,8.0,0.01,0.01,0.01,ASST_TAKEOFF,1.0,0.0,0.0,0.0,16.0,10.0,35.0,0.0,False,0.0016854105,0.0,0.0,0.001685363,0.0,0.0016853542,0.00010533816,0.3406714,0.00010533519,0.000105334635
1.43,-106.21645353961108,39.961194052046416,-2.1303709062499365,1.154753368265416,-1.990665011144102,-117.8511077268059,-0.045951568,-0.03003772,-1.0167711,1.018252,-1.0760143,-1.2071792,5.004723,0.013072427,0.0058142673,-0.00272517,0.0145643605,1528.0,65.02,2.3008820069120683,0.0048895437499361,-0.0008561266319535576,0.0232572507934225,-0.0075323719528751,0.0070617585285194,-0.00039952486008114655,False,-576.40301798069,-561.3797633125504,-68.0314451478349,227.3371538520996,79.1539783769882,79.1539783769882,0.0,0.0,65035.0,-106.2164535,39.9611939,2018-06-19 20:08:28+00:00,2485.673,0.75,1.27,7.3,8.0,0.0,0.0,0.01,ASST_TAKEOFF,1.0,0.0,0.0,0.0,16.0,10.0,35.0,0.0,False,0.0016852074,0.0,0.0,0.0016852298,0.0,0.0016852116,0.00010532546,0.34054536,0.000105326864,0.00010532572
1.471,-106.2164534090466,39.96119403840005,-2.5161130937499365,1.0795355555021773,-1.9398137521070664,-117.8634610204431,-0.042337846,-0.012109159,-1.0119294,1.0128871,-0.10953777,1.9639914,2.0496352,0.014279403,0.0072855647,-0.0018709085,0.016139427,1529.0,65.04,2.219570815161727,0.0063143964743623,-0.00017371045718483913,0.0230178249493011,-0.0087393473831253,0.0055904611787386,-0.0012537863124132,False,-576.3635929791412,-561.4415228753779,-67.75471236431405,227.3483846670517,97.76503741739803,97.76503741739803,0.0,0.0,65075.0,-106.2164535,39.9611939,2018-06-19 20:08:28+00:00,2485.673,0.75,1.27,7.3,8.0,0.0,0.0,0.01,ASST_TAKEOFF,1.0,0.0,0.0,0.0,16.0,10.0,35.0,0.0,False,0.0016852074,0.0,0.0,0.0016852298,0.0,0.0016852116,0.00010532546,0.34054536,0.000105326864,0.00010532572
1.553,-106.2164534090466,39.96119403840005,-2.5161130937499365,1.0795355555021773,-1.9398137521070664,-117.8634610204431,-0.042337846,-0.012109159,-1.0119294,1.0128871,-0.10953777,1.9639914,2.0496352,0.014279403,0.0072855647,-0.0018709085,0.016139427,1529.0,65.04,2.219570815161727,0.0063143964743623,-0.00017371045718483913,0.0230178249493011,-0.0087393473831253,0.0055904611787386,-0.0012537863124132,False,-576.3635929791412,-561.4415228753779,-67.75471236431405,227.3483846670517,97.76503741739803,97.76503741739803,0.0,0.0,65075.0,-106.2164535,39.9611939,2018-06-19 20:08:28+00:00,2485.673,0.75,1.27,7.3,8.0,0.0,0.0,0.01,ASST_TAKEOFF,1.0,0.0,0.0,0.0,16.0,10.0,35.0,0.0,False,0.0016852074,0.0,0.0,0.0016852298,0.0,0.0016852116,0.00010532546,0.34054536,0.000105326864,0.00010532572
1.602,-106.21645338815358,39.961194045643374,-1.9638669999999363,1.1046273923223726,-1.7739837419776925,-117.84769993495246,-0.030919258,-0.0267651,-1.012605,1.0134304,0.58064973,0.36838576,8.443794,0.010730099,0.007227631,-0.0041412646,0.013583952,1524.0,65.04,2.089416510635887,0.0076179923284591,0.0005827756848102439,0.0227044462958136,-0.005190043523653,0.0056483950308151,0.0010165697410731,False,-576.2420200970987,-561.4169666244962,-68.16335304053574,227.35033902899508,65.66226604421881,65.66226604421881,0.0,0.0,65115.0,-106.2164535,39.9611939,2018-06-19 20:08:28+00:00,2485.673,0.75,1.27,7.3,8.0,0.0,0.0,0.01,AutoTakeoff,1.0,0.0,0.0,0.0,16.0,10.0,35.0,0.0,False,0.0016852074,0.0,0.0,0.0016852298,0.0,0.0016852116,0.00010532546,0.34054536,0.000105326864,0.00010532572
1.644,-106.21645338815358,39.961194045643374,-1.9638669999999363,1.1046273923223726,-1.7739837419776925,-117.84769993495246,-0.030919258,-0.0267651,-1.012605,1.0134304,0.58064973,0.36838576,8.443794,0.010730099,0.007227631,-0.0041412646,0.013583952,1524.0,65.04,2.089416510635887,0.0076179923284591,0.0005827756848102439,0.0227044462958136,-0.005190043523653,0.0056483950308151,0.0010165697410731,False,-576.2420200970987,-561.4169666244962,-68.16335304053574,227.35033902899508,65.66226604421881,65.66226604421881,0.0,0.0,65115.0,-106.2164535,39.9611939,2018-06-19 20:08:28+00:00,2485.673,0.75,1.27,7.3,8.0,0.01,0.01,0.01,AutoTakeoff,1.0,0.0,0.0,0.0,16.0,10.0,35.0,0.0,False,0.0016848713,0.0,0.0,0.0016848128,0.0,0.0016847793,0.000105304454,0.3404298,0.0001053008,0.000105298706
1.679,-106.21645336705949,39.961194048229345,-1.2927244218749363,0.9931528471616434,-1.5887004446993254,-117.87579156072788,-0.026957478,-0.013391388,-1.0037605,1.0042117,-4.9914427,0.04443366,5.2979035,0.011435502,0.0072500277,-0.0042743203,0.014198712,1516.0,65.01,1.8733155278466624,0.008771999760949,0.0013365258523005,0.0222663057968421,-0.0127934399137543,0.039801062280279,0.0003688331134908311,False,-576.2205274843282,-561.6466056859973,-68.69392384391323,227.352159700718,80.9129910612935,80.9129910612935,0.0,0.0,65155.0,-106.2164535,39.9611939,2018-06-19 20:08:28+00:00,2485.673,0.75,1.27,7.3,8.0,0.01,0.01,0.01,AutoTakeoff,1.0,0.0,0.0,0.0,16.0,10.0,35.0,0.0,False,0.0016848713,0.0,0.0,0.0016848128,0.0,0.0016847793,0.000105304454,0.3404298,0.0001053008,0.000105298706
1.768,-106.21645336705949,39.961194048229345,-1.2927244218749363,0.9931528471616434,-1.5887004446993254,-117.87579156072788,-0.026957478,-0.013391388,-1.0037605,1.0042117,-4.9914427,0.04443366,5.2979035,0.011435502,0.0072500277,-0.0042743203,0.014198712,1516.0,65.01,1.8733155278466624,0.008771999760949,0.0013365258523005,0.0222663057968421,-0.0127934399137543,0.039801062280279,0.0003688331134908311,False,-576.2205274843282,-561.6466056859973,-68.69392384391323,227.352159700718,80.9129910612935,80.9129910612935,0.0,0.0,65155.0,-106.2164535,39.9611939,2018-06-19 20:08:28+00:00,2485.673,0.75,1.27,7.3,8.0,0.01,0.01,0.01,AutoTakeoff,1.0,0.0,0.0,0.0,16.0,10.0,35.0,0.0,False,0.0016848713,0.0,0.0,0.0016848128,0.0,0.0016847793,0.000105304454,0.3404298,0.0001053008,0.000105298706
1.81,-106.2164533561549,39.96119400634902,-1.8635252031249363,1.0387294048784204,-1.29272578173136,-117.85265132387823,-0.02411327,-0.022850037,-1.0092922,1.0098387,6.21675,0.79345894,6.325308,0.018139515,0.014657017,-0.0071592513,0.024395185,1527.0,64.99,1.6581214317500377,0.0103126660969614,0.00247774060721,0.0216706909688984,-0.0194974527770923,0.0323940731677827,0.0032537640445225,False,-576.1768787212916,-561.5827751244107,-68.7418315567953,227.35690841404417,168.71364892621452,168.71364892621452,0.0,0.0,65195.0,-106.2164535,39.9611939,2018-06-19 20:08:28+00:00,2485.673,0.75,1.27,7.3,8.0,0.01,0.01,0.01,AutoTakeoff,1.0,0.0,0.0,0.0,16.0,10.0,35.0,0.0,False,0.0016848713,0.0,0.0,0.0016848128,0.0,0.0016847793,0.000105304454,0.3404298,0.0001053008,0.000105298706
1.852,-106.2164533561549,39.96119400634902,-1.8635252031249363,1.0387294048784204,-1.29272578173136,-117.85265132387823,-0.02411327,-0.022850037,-1.0092922,1.0098387,6.21675,0.79345894,6.325308,0.018139515,0.014657017,-0.0071592513,0.024395185,1527.0,64.99,1.6581214317500377,0.0103126660969614,0.00247774060721,0.0216706909688984,-0.0194974527770923,0.0323940731677827,0.0032537640445225,False,-576.1768787212916,-561.5827751244107,-68.7418315567953,227.35690841404417,168.71364892621452,168.71364892621452,0.0,0.0,65195.0,-106.2164535,39.9611939,2018-06-19 20:08:28+00:00,2485.678,0.75,1.27,7.3,8.0,0.0,0.0,0.01,AutoTakeoff,1.0,0.0,0.0,0.0,16.0,10.0,35.0,0.0,False,0.0016843813,0.0,0.0,0.0016843448,0.0,0.001684373,0.00010527383,0.3405687,0.00010527155,0.00010527331
1.887,-106.2164533457196,39.9611939646804,-1.7392576249999363,0.9684771226099416,-1.0433183273745512,-117.87077494261688,-0.008512917,-0.004252786,-1.0095955,1.0096403,4.772986,-3.6188827,6.025409,0.015496739,0.013834633,-0.008457863,0.022429477,1512.0,64.99,1.4233926091643052,0.012064383256753,0.0039615357837217,0.0208573790461219,-0.0168546768913315,0.0332164570782002,0.0045523755625181,False,-576.3240218357298,-561.01044893359,-68.66321188605944,227.36162634247327,169.13401094733516,169.13401094733516,0.0,0.0,65235.0,-106.2164535,39.9611939,2018-06-19 20:08:28+00:00,2485.678,0.75,1.27,7.3,8.0,0.0,0.0,0.01,AutoTakeoff,1.0,0.0,0.0,0.0,16.0,10.0,35.0,0.0,False,0.0016843813,0.0,0.0,0.0016843448,0.0,0.001684373,0.00010527383,0.3405687,0.00010527155,0.00010527331
1.976,-106.2164533457196,39.9611939646804,-1.7392576249999363,0.9684771226099416,-1.0433183273745512,-117.87077494261688,-0.008512917,-0.004252786,-1.0095955,1.0096403,4.772986,-3.6188827,6.025409,0.015496739,0.013834633,-0.008457863,0.022429477,1512.0,64.99,1.4233926091643052,0.012064383256753,0.0039615357837217,0.0208573790461219,-0.0168546768913315,0.0332164570782002,0.0045523755625181,False,-576.3240218357298,-561.01044893359,-68.66321188605944,227.36162634247327,169.13401094733516,169.13401094733516,0.0,0.0,65235.0,-106.2164535,39.9611939,2018-06-19 20:08:28+00:00,2485.678,0.75,1.27,7.3,8.0,0.0,0.0,0.01,AutoTakeoff,1.0,0.0,0.0,0.0,16.0,10.0,35.0,0.0,False,0.0016843813,0.0,0.0,0.0016843448,0.0,0.001684373,0.00010527383,0.3405687,0.00010527155,0.00010527331
2.018,-106.21645336902588,39.961193896090336,-1.8820798906249363,0.6813267930082539,-0.8557490053159299,-117.89318747603411,-0.02480289,-0.01115108,-1.0162531,1.016617,-7.8237667,-1.0489817,7.9769926,0.0045872657,0.009216948,-0.012710306,0.016356865,1525.0,64.97,1.0937890628269549,0.0131106294810443,0.0051623734716113,0.0197546549293452,-0.0587166568271202,-0.0097531947779602,0.0111479584351196,False,-576.5671872531732,-561.1693747996725,-68.68900471397465,227.36950763310352,-165.40200743693032,-165.40200743693032,0.0,0.0,65275.0,-106.2164535,39.9611939,2018-06-19 20:08:28+00:00,2485.678,0.75,1.27,7.3,8.0,0.0,0.0,0.01,AutoTakeoff,1.0,0.0,0.0,0.0,16.0,10.0,35.0,0.0,False,0.0016843813,0.0,0.0,0.0016843448,0.0,0.001684373,0.00010527383,0.3405687,0.00010527155,0.00010527331
2.061,-106.21645336902588,39.961193896090336,-1.8820798906249363,0.6813267930082539,-0.8557490053159299,-117.89318747603411,-0.02480289,-0.01115108,-1.0162531,1.016617,-7.8237667,-1.0489817,7.9769926,0.0045872657,0.009216948,-0.012710306,0.016356865,1525.0,64.97,1.0937890628269549,0.0131106294810443,0.0051623734716113,0.0197546549293452,-0.0587166568271202,-0.0097531947779602,0.0111479584351196,False,-576.5671872531732,-561.1693747996725,-68.68900471397465,227.36950763310352,-165.40200743693032,-165.40200743693032,0.0,0.0,65275.0,-106.2164534,39.9611939,2018-06-19 20:08:29+00:00,2485.679,0.75,1.27,7.3,8.0,0.0,0.02,0.01,AutoTakeoff,1.0,0.0,0.0,0.0,16.0,10.0,35.0,0.0,False,0.0016838863,0.0,0.0,0.0016839643,0.0,0.0016840162,0.00010524289,0.34053832,0.00010524777,0.00010525101
2.096,-106.21645338370683,39.96119383718626,-2.4235837968749365,0.4143754661631164,-0.2102319088281732,-117.89721743735676,-0.019210653,-0.0075720707,-1.0157217,1.0159315,-4.0286694,1.879447,6.4131823,0.008914564,0.01907104,-0.022489293,0.030804908,1530.0,65.0,0.4646519129603658,0.0138135750703973,0.0066351307159688,0.0179220586498605,-0.0630439549691362,-0.0196072870406455,0.0209269451200976,False,-576.5239507471181,-561.7864480396639,-68.50818190340179,227.37617591083452,-169.1848893855579,-169.1848893855579,0.0,0.0,65315.0,-106.2164534,39.9611939,2018-06-19 20:08:29+00:00,2485.679,0.75,1.27,7.3,8.0,0.0,0.02,0.01,AutoTakeoff,1.0,0.0,0.0,0.0,16.0,10.0,35.0,0.0,False,0.0016838863,0.0,0.0,0.0016839643,0.0,0.0016840162,0.00010524289,0.34053832,0.00010524777,0.00010525101
2.184,-106.21645338370683,39.96119383718626,-2.4235837968749365,0.4143754661631164,-0.2102319088281732,-117.89721743735676,-0.019210653,-0.0075720707,-1.0157217,1.0159315,-4.0286694,1.879447,6.4131823,0.008914564,0.01907104,-0.022489293,0.030804908,1530.0,65.0,0.4646519129603658,0.0138135750703973,0.0066351307159688,0.0179220586498605,-0.0630439549691362,-0.0196072870406455,0.0209269451200976,False,-576.5239507471181,-561.7864480396639,-68.50818190340179,227.37617591083452,-169.1848893855579,-169.1848893855579,0.0,0.0,65315.0,-106.2164534,39.9611939,2018-06-19 20:08:29+00:00,2485.679,0.75,1.27,7.3,8.0,0.0,0.02,0.01,AutoTakeoff,1.0,0.0,0.0,0.0,16.0,10.0,35.0,0.0,False,0.0016838863,0.0,0.0,0.0016839643,0.0,0.0016840162,0.00010524289,0.34053832,0.00010524777,0.00010525101
2.227,-106.21645335468013,39.961193841990166,-2.7116697343749365,-0.0418737844053091,1.224614068219079,-117.92563869174644,-0.020857496,0.0065659164,-1.0458443,1.0460728,-6.341171,0.26716,22.303846,0.007965695,0.055614337,-0.03043029,0.063893735,1526.0,64.97,1.2253293280273485,0.01469292693724,0.0105257538924288,0.0151652920221909,-0.0620950862772149,-0.0561505836906976,0.0288679434210076,False,-576.4121264637363,-562.326649368024,-67.15353494010161,227.37870683260687,77.81565185464864,77.81565185464864,0.0,0.0,65355.0,-106.2164534,39.9611939,2018-06-19 20:08:29+00:00,2485.679,0.75,1.27,7.3,8.0,0.0,0.02,0.01,AutoTakeoff,1.0,0.0,0.0,0.0,16.0,10.0,35.0,0.0,False,0.0016838863,0.0,0.0,0.0016839643,0.0,0.0016840162,0.00010524289,0.34053832,0.00010524777,0.00010525101
2.269,-106.21645335468013,39.961193841990166,-2.7116697343749365,-0.0418737844053091,1.224614068219079,-117.92563869174644,-0.020857496,0.0065659164,-1.0458443,1.0460728,-6.341171,0.26716,22.303846,0.007965695,0.055614337,-0.03043029,0.063893735,1526.0,64.97,1.2253293280273485,0.01469292693724,0.0105257538924288,0.0151652920221909,-0.0620950862772149,-0.0561505836906976,0.0288679434210076,False,-576.4121264637363,-562.326649368024,-67.15353494010161,227.37870683260687,77.81565185464864,77.81565185464864,0.0,0.0,65355.0,-106.2164534,39.9611939,2018-06-19 20:08:29+00:00,2485.682,0.75,1.27,7.3,8.0,0.01,0.02,0.0,AutoTakeoff,1.0,0.0,0.0,0.0,16.0,10.0,35.0,0.0,False,0.00167368,0.0,0.0,0.0016736763,0.0,0.0016736438,0.000104605,0.33979917,0.00010460477,0.00010460274
2.304,-106.2164532630414,39.96119386399696,-4.1174314531249365,-1.0739616575257838,5.189146277474536,-117.8648562508306,-0.024152031,0.0034309567,-1.0948061,1.0950778,-18.827085,3.8326163,56.902424,0.036093075,0.14798181,-0.0702136,0.1677238,1537.0,65.0,5.297930773105187,0.0169874304438586,0.0211286842298559,0.0099239345567685,-0.0475137754114144,-0.1190736611116988,0.048336464554051,False,-576.198617299214,-563.637368037049,-63.250668303262145,227.3868914467583,72.60359362587268,72.60359362587268,0.0,0.0,65395.0,-106.2164534,39.9611939,2018-06-19 20:08:29+00:00,2485.682,0.75,1.27,7.3,8.0,0.01,0.02,0.0,AutoTakeoff,1.0,0.0,0.0,0.0,16.0,10.0,35.0,0.0,False,0.00167368,0.0,0.0,0.0016736763,0.0,0.0016736438,0.000104605,0.33979917,0.00010460477,0.00010460274
2.395,-106.2164532630414,39.96119386399696,-4.1174314531249365,-1.0739616575257838,5.189146277474536,-117.8648562508306,-0.024152031,0.0034309567,-1.0948061,1.0950778,-18.827085,3.8326163,56.902424,0.036093075,0.14798181,-0.0702136,0.1677238,1537.0,65.0,5.297930773105187,0.0169874304438586,0.0211286842298559,0.0099239345567685,-0.0475137754114144,-0.1190736611116988,0.048336464554051,False,-576.198617299214,-563.637368037049,-63.250668303262145,227.3868914467583,72.60359362587268,72.60359362587268,0.0,0.0,65395.0,-106.2164534,39.9611939,2018-06-19 20:08:29+00:00,2485.682,0.75,1.27,7.3,8.0,0.01,0.02,0.0,AutoTakeoff,1.0,0.0,0.0,0.0,16.0,10.0,35.0,0.0,False,0.00167368,0.0,0.0,0.0016736763,0.0,0.0016736438,0.000104605,0.33979917,0.00010460477,0.00010460274
2.435,-106.21645292012808,39.96119394111681,-3.948241999999937,-3.4736480897578663,10.944779893892951,-116.40231303831484,-0.067612514,-0.052762847,-1.087152,1.0905296,-24.952522,14.397274,40.06911,0.065751664,0.34296972,-0.16195518,0.38494283,1533.0,64.99,11.457689035654884,0.0222944339878914,0.0467115616052833,-0.0021740936952436,-0.0771723649235241,-0.3140615691174133,0.1400780413448606,False,-575.24868023358,-565.9186693148841,-59.008461380180606,227.4173495768183,73.64756005967921,73.64756005967921,0.0,0.0,65435.0,-106.2164534,39.9611939,2018-06-19 20:08:29+00:00,2485.682,0.75,1.27,7.3,8.0,0.01,0.02,0.0,AutoTakeoff,1.0,0.0,0.0,0.0,16.0,10.0,35.0,0.0,False,0.00167368,0.0,0.0,0.0016736763,0.0,0.0016736438,0.000104605,0.33979917,0.00010460477,0.00010460274
2.477,-106.21645292012808,39.96119394111681,-3.948241999999937,-3.4736480897578663,10.944779893892951,-116.40231303831484,-0.067612514,-0.052762847,-1.087152,1.0905296,-24.952522,14.397274,40.06911,0.065751664,0.34296972,-0.16195518,0.38494283,1533.0,64.99,11.457689035654884,0.0222944339878914,0.0467115616052833,-0.0021740936952436,-0.0771723649235241,-0.3140615691174133,0.1400780413448606,False,-575.24868023358,-565.9186693148841,-59.008461380180606,227.4173495768183,73.64756005967921,73.64756005967921,0.0,0.0,65435.0,-106.2164531,39.961194,2018-06-19 20:08:29+00:00,2485.69,0.75,1.27,7.3,8.0,0.04,0.11,-0.01,AutoTakeoff,1.0,0.0,0.0,0.0,16.0,10.0,35.0,0.0,False,0.0023215997,0.0,0.0,0.002321475,0.0,0.002321404,0.00014509998,0.3511442,0.00014509218,0.00014508775
2.512,-106.21645236743566,39.96119399071922,-3.2558591874999365,-3.5224506079409226,7.856729678071855,-115.93327082713068,-0.074460104,-0.048683237,-1.1211275,1.1246517,29.994339,0.3733635,91.01949,0.061305035,0.5977338,-0.28247634,0.66395545,1543.0,64.96,8.592330866059674,0.0289093854317989,0.0956873974870031,-0.025312526376906,-0.0727257354887001,-0.5688256491650208,0.2605991993248259,False,-574.4796767058754,-565.656177270521,-62.03251557847362,227.46477660975887,83.32166403322988,83.32166403322988,0.0,0.0,65475.0,-106.2164531,39.961194,2018-06-19 20:08:29+00:00,2485.69,0.75,1.27,7.3,8.0,0.04,0.11,-0.01,AutoTakeoff,1.0,0.0,0.0,0.0,15.0,10.0,0.0,0.0,False,0.0023215997,0.0,0.0,0.002321475,0.0,0.002321404,0.00014509998,0.3511442,0.00014509218,0.00014508775
2.601,-106.21645236743566,39.96119399071922,-3.2558591874999365,-3.5224506079409226,7.856729678071855,-115.93327082713068,-0.074460104,-0.048683237,-1.1211275,1.1246517,29.994339,0.3733635,91.01949,0.061305035,0.5977338,-0.28247634,0.66395545,1543.0,64.96,8.592330866059674,0.0289093854317989,0.0956873974870031,-0.025312526376906,-0.0727257354887001,-0.5688256491650208,0.2605991993248259,False,-574.4796767058754,-565.656177270521,-62.03251557847362,227.46477660975887,83.32166403322988,83.32166403322988,0.0,0.0,65475.0,-106.2164531,39.961194,2018-06-19 20:08:29+00:00,2485.69,0.75,1.27,7.3,8.0,0.04,0.11,-0.01,AutoTakeoff,1.0,0.0,0.0,0.0,15.0,10.0,0.0,0.0,False,0.0023215997,0.0,0.0,0.002321475,0.0,0.002321404,0.00014509998,0.3511442,0.00014509218,0.00014508775
2.643,-106.2164515724962,39.961194030902696,-2.8835447343749365,0.1161715270905816,-1.5989026549760117,-116.48866032767776,-0.012682288,-0.047766525,-1.1049703,1.106075,31.79111,-8.546091,76.85292,0.043391448,0.76057214,-0.35887736,0.8421079,1535.0,64.98,1.603113070220069,0.0343617947106587,0.1664255893634472,-0.0587131026471023,0.0159975809874595,-0.2995069266473976,0.1620023608207702,False,-574.905298032277,-562.4384994403555,-70.12443028661765,227.5326754019881,86.22682369718305,86.22682369718305,0.0,0.0,65515.0,-106.2164531,39.961194,2018-06-19 20:08:29+00:00,2485.69,0.75,1.27,7.3,8.0,0.04,0.11,-0.01,AutoTakeoff,1.0,0.0,0.0,0.0,15.0,10.0,0.0,0.0,False,0.0023215997,0.0,0.0,0.002321475,0.0,0.002321404,0.00014509998,0.3511442,0.00014509218,0.00014508775
2.68,-106.2164515724962,39.961194030902696,-2.8835447343749365,0.1161715270905816,-1.5989026549760117,-116.48866032767776,-0.012682288,-0.047766525,-1.1049703,1.106075,31.79111,-8.546091,76.85292,0.043391448,0.76057214,-0.35887736,0.8421079,1535.0,64.98,1.603113070220069,0.0343617947106587,0.1664255893634472,-0.0587131026471023,0.0159975809874595,-0.2995069266473976,0.1620023608207702,False,-574.905298032277,-562.4384994403555,-70.12443028661765,227.5326754019881,86.22682369718305,86.22682369718305,0.0,0.0,65515.0,-106.216452,39.9611941,2018-06-19 20:08:29+00:00,2485.746,0.75,1.27,7.3,8.0,0.03,0.4,-0.1,AutoTakeoff,1.0,0.0,0.0,0.0,15.0,10.0,0.0,0.0,False,0.004951691,0.0,0.0,0.004951185,0.0,0.0049509807,0.00030948067,0.3494234,0.00030944907,0.0003094363
2.721,-106.21645074931207,39.96119404231809,-1.4782712968749363,3.3982463242728587,-5.107468220977395,-116.65741126172804,-0.061879754,-0.014866211,-1.0481894,1.0501196,18.711409,-0.49063277,28.729242,0.015206903,0.7607244,-0.3790866,0.8500821,1530.0,64.97,6.124755590710786,0.0374134940980717,0.2456520475221477,-0.097144972838846,0.044182125282532,-0.2996592165147987,0.1822116136550903,False,-575.3759147697558,-559.8084168458919,-74.87605728524032,227.60284575166912,88.96350192962166,88.96350192962166,0.0,0.0,19.0,-106.216452,39.9611941,2018-06-19 20:08:29+00:00,2485.746,0.75,1.27,7.3,8.0,0.03,0.4,-0.1,AutoTakeoff,1.0,0.0,0.0,0.0,15.0,10.0,0.0,0.0,False,0.004951691,0.0,0.0,0.004951185,0.0,0.0049509807,0.00030948067,0.3494234,0.00030944907,0.0003094363
2.811,-106.21645074931207,39.96119404231809,-1.4782712968749363,3.3982463242728587,-5.107468220977395,-116.65741126172804,-0.061879754,-0.014866211,-1.0481894,1.0501196,18.711409,-0.49063277,28.729242,0.015206903,0.7607244,-0.3790866,0.8500821,1530.0,64.97,6.124755590710786,0.0374134940980717,0.2456520475221477,-0.097144972838846,0.044182125282532,-0.2996592165147987,0.1822116136550903,False,-575.3759147697558,-559.8084168458919,-74.87605728524032,227.60284575166912,88.96350192962166,88.96350192962166,0.0,0.0,19.0,-106.216452,39.9611941,2018-06-19 20:08:29+00:00,2485.746,0.75,1.27,7.3,8.0,0.03,0.4,-0.1,AutoTakeoff,1.0,0.0,0.0,0.0,15.0,10.0,0.0,0.0,False,0.004951691,0.0,0.0,0.004951185,0.0,0.0049509807,0.00030948067,0.3494234,0.00030944907,0.0003094363
2.852,-106.21644970823743,39.96119407040224,-1.7741697343749363,3.4007347462394546,-6.857411697837476,-116.65257049980656,-0.086208,-0.05058287,-1.0370983,1.0419037,-6.110433,-2.1490643,13.938138,-0.035106804,0.7377729,-0.41685802,0.8481226,1523.0,64.98,7.640032864444628,0.0363771421369811,0.3236911605259447,-0.138596373991545,0.0944958327236236,-0.2767076731836525,0.2199830174446106,False,-575.5133855662127,-559.152180129775,-76.6538209714705,227.6916300683947,87.98431717709994,87.98431717709994,0.0,0.0,59.0,-106.216452,39.9611941,2018-06-19 20:08:29+00:00,2485.746,0.75,1.27,7.3,8.0,0.03,0.4,-0.1,AutoTakeoff,1.0,0.0,0.0,0.0,15.0,10.0,0.0,0.0,True,0.004951691,0.0,0.0,0.004951185,0.0,0.0049509807,0.00030948067,0.3494234,0.00030944907,0.0003094363
2.891,-106.21644970823743,39.96119407040224,-1.7741697343749363,3.4007347462394546,-6.857411697837476,-116.65257049980656,-0.086208,-0.05058287,-1.0370983,1.0419037,-6.110433,-2.1490643,13.938138,-0.035106804,0.7377729,-0.41685802,0.8481226,1523.0,64.98,7.640032864444628,0.0363771421369811,0.3236911605259447,-0.138596373991545,0.0944958327236236,-0.2767076731836525,0.2199830174446106,False,-575.5133855662127,-559.152180129775,-76.6538209714705,227.6916300683947,87.98431717709994,87.98431717709994,0.0,0.0,59.0,-106.2164504,39.9611939,2018-06-19 20:08:29+00:00,2485.802,0.75,1.27,7.31,8.0,-0.05,0.67,-0.16,AutoTakeoff,1.0,0.0,0.0,0.0,15.0,10.0,0.0,0.0,True,0.031999998,0.0,0.0,0.031999998,0.0,0.031999998,0.0019999999,0.34762466,0.0019999999,0.0019999999
2.929,-106.21644887222703,39.96119408428309,-1.1713865312499363,3.745806752949077,-7.1251348069923335,-116.49022333863476,-0.07900773,-0.042579837,-1.0387243,1.0425946,15.97719,2.1482346,18.233734,-0.030275453,0.67316943,-0.43864185,0.80404,1527.0,64.97,8.031938571481557,0.0329691558352998,0.3972351508769716,-0.1831884689338903,0.0492657567004316,0.0631356628273204,0.0512175149946467,False,-575.5134288133406,-558.6378850610309,-77.74119210811442,227.7628988191137,88.75903685915416,88.75903685915416,0.0,0.0,99.0,-106.2164504,39.9611939,2018-06-19 20:08:29+00:00,2485.802,0.75,1.27,7.31,8.0,-0.05,0.67,-0.16,AutoTakeoff,1.0,0.0,0.0,0.0,15.0,10.0,0.0,0.0,True,0.031999998,0.0,0.0,0.031999998,0.0,0.031999998,0.0019999999,0.34762466,0.0019999999,0.0019999999
3.018,-106.21644887222703,39.96119408428309,-1.1713865312499363,3.745806752949077,-7.1251348069923335,-116.49022333863476,-0.07900773,-0.042579837,-1.0387243,1.0425946,15.97719,2.1482346,18.233734,-0.030275453,0.67316943,-0.43864185,0.80404,1527.0,64.97,8.031938571481557,0.0329691558352998,0.3972351508769716,-0.1831884689338903,0.0492657567004316,0.0631356628273204,0.0512175149946467,False,-575.5134288133406,-558.6378850610309,-77.74119210811442,227.7628988191137,88.75903685915416,88.75903685915416,0.0,0.0,99.0,-106.2164504,39.9611939,2018-06-19 20:08:29+00:00,2485.802,0.75,1.27,7.31,8.0,-0.05,0.67,-0.16,AutoTakeoff,1.0,0.0,0.0,0.0,15.0,10.0,0.0,0.0,True,0.031999998,0.0,0.0,0.031999998,0.0,0.031999998,0.0019999999,0.34762466,0.0019999999,0.0019999999
3.06,-106.21644793834356,39.96119409190096,-0.0751951249999365,4.103729370801281,-8.026178275571805,-116.2992123797934,-0.09133681,-0.025614722,-1.0460286,1.0503211,-16.72449,-2.6769278,20.914917,-0.040812355,0.5816617,-0.46322018,0.7446938,1510.0,64.96,8.990257316439273,0.0292670274369548,0.4625845567712385,-0.2301558623087611,0.0598026583532445,0.154643395695515,0.0757958478956477,False,-575.5409622283908,-558.676803093109,-78.82389141286659,227.84249695074996,89.39025819267967,89.39025819267967,0.0,0.0,139.0,-106.2164504,39.9611939,2018-06-19 20:08:29+00:00,2485.802,0.75,1.27,7.31,8.0,-0.05,0.67,-0.16,AutoTakeoff,1.0,0.0,0.0,0.0,15.0,10.0,0.0,0.0,True,0.031999998,0.0,0.0,0.031999998,0.0,0.031999998,0.0019999999,0.34762466,0.0019999999,0.0019999999
3.097,-106.21644793834356,39.96119409190096,-0.0751951249999365,4.103729370801281,-8.026178275571805,-116.2992123797934,-0.09133681,-0.025614722,-1.0460286,1.0503211,-16.72449,-2.6769278,20.914917,-0.040812355,0.5816617,-0.46322018,0.7446938,1510.0,64.96,8.990257316439273,0.0292670274369548,0.4625845567712385,-0.2301558623087611,0.0598026583532445,0.154643395695515,0.0757958478956477,False,-575.5409622283908,-558.676803093109,-78.82389141286659,227.84249695074996,89.39025819267967,89.39025819267967,0.0,0.0,139.0,-106.2164489,39.9611938,2018-06-19 20:08:30+00:00,2485.875,0.84,1.46,7.33,8.0,-0.07,0.64,-0.23,AutoTakeoff,1.0,0.0,0.0,0.0,15.0,10.0,0.0,0.0,True,0.031999998,0.0,0.0,0.031999998,0.0,0.031999998,0.0019999999,0.34869915,0.0019999999,0.0019999999
3.137,-106.21644710715977,39.961194109133146,1.7578126875000637,3.111188303880303,-7.572651018615701,-116.34644301050778,-0.09947766,-0.025129603,-0.9898059,0.9951095,-21.218481,-3.3432598,22.335533,-0.024239872,0.54995906,-0.47725165,0.72856826,1526.0,64.93,8.173206154246497,0.0258831920019666,0.5214483138966752,-0.2790765846842031,0.0432301754693143,0.1863460333679393,0.0898273177175776,False,-575.8541156033928,-560.6504906185984,-79.14372437290841,227.9133635290629,88.45061303423375,88.45061303423375,0.0,0.0,179.0,-106.2164489,39.9611938,2018-06-19 20:08:30+00:00,2485.875,0.84,1.46,7.33,8.0,-0.07,0.64,-0.23,AutoTakeoff,1.0,0.0,0.0,0.0,15.0,10.0,0.0,0.0,True,0.031999998,0.0,0.0,0.031999998,0.0,0.031999998,0.0019999999,0.34869915,0.0019999999,0.0019999999
3.228,-106.21644710715977,39.961194109133146,1.7578126875000637,3.111188303880303,-7.572651018615701,-116.34644301050778,-0.09947766,-0.025129603,-0.9898059,0.9951095,-21.218481,-3.3432598,22.335533,-0.024239872,0.54995906,-0.47725165,0.72856826,1526.0,64.93,8.173206154246497,0.0258831920019666,0.5214483138966752,-0.2790765846842031,0.0432301754693143,0.1863460333679393,0.0898273177175776,False,-575.8541156033928,-560.6504906185984,-79.14372437290841,227.9133635290629,88.45061303423375,88.45061303423375,0.0,0.0,179.0,-106.2164489,39.9611938,2018-06-19 20:08:30+00:00,2485.875,0.84,1.46,7.33,8.0,-0.07,0.64,-0.23,AutoTakeoff,1.0,0.0,0.0,0.0,15.0,10.0,0.0,0.0,True,0.031999998,0.0,0.0,0.031999998,0.0,0.031999998,0.0019999999,0.34869915,0.0019999999,0.0019999999
3.268,-106.21644619415808,39.96119380676367,0.8344728437500635,3.532821205093395,-7.76450458565185,-116.07089547985252,-0.15346423,-0.024046078,-1.0582983,1.0696378,15.717814,4.3363175,20.832281,-0.0145236105,0.52914774,-0.50561225,0.7320192,1507.0,65.02,8.512696165071233,0.0238632748350333,0.5776792365700967,-0.3302924084894538,-0.0842533351618225,0.2014605074808807,0.0859580585776542,False,-575.8023685919718,-560.9371235608234,-79.50040152601251,227.99813049201975,113.36828423783167,113.36828423783167,0.0,0.0,219.0,-106.2164489,39.9611938,2018-06-19 20:08:30+00:00,2485.875,0.84,1.46,7.33,8.0,-0.07,0.64,-0.23,AutoTakeoff,1.0,0.0,0.0,0.0,15.0,10.0,0.0,0.0,True,0.031999998,0.0,0.0,0.031999998,0.0,0.031999998,0.0019999999,0.34869915,0.0019999999,0.0019999999
3.305,-106.21644619415808,39.96119380676367,0.8344728437500635,3.532821205093395,-7.76450458565185,-116.07089547985252,-0.15346423,-0.024046078,-1.0582983,1.0696378,15.717814,4.3363175,20.832281,-0.0145236105,0.52914774,-0.50561225,0.7320192,1507.0,65.02,8.512696165071233,0.0238632748350333,0.5776792365700967,-0.3302924084894538,-0.0842533351618225,0.2014605074808807,0.0859580585776542,False,-575.8023685919718,-560.9371235608234,-79.50040152601251,227.99813049201975,113.36828423783167,113.36828423783167,0.0,0.0,219.0,-106.2164477,39.9611938,2018-06-19 20:08:30+00:00,2485.942,0.9,1.69,7.35,8.0,0.0,0.52,-0.26,AutoTakeoff,1.0,0.0,0.0,0.0,15.0,10.0,0.0,0.0,True,0.010951102,0.0,0.0,0.01095108,0.0,0.010951089,0.00068444386,0.34916097,0.0006844425,0.00068444305
3.346,-106.21644553100091,39.96119372165793,1.9897462812500637,4.85690880656557,-6.26912661842155,-115.69577167327442,-0.15847802,-0.009236993,-1.0144753,1.0268208,3.96596,-2.0829775,11.37414,0.013705805,0.46408123,-0.5374458,0.71021634,1519.0,64.97,7.9068585016848365,0.0238206849566573,0.6294048603691262,-0.3846130426884837,-0.1124827505785401,0.2665270238802643,0.1177915880500053,False,-575.6850185944124,-559.9120270906316,-79.63120599534123,228.05543724104209,99.50505283861182,99.50505283861182,0.0,0.0,259.0,-106.2164477,39.9611938,2018-06-19 20:08:30+00:00,2485.942,0.9,1.69,7.35,8.0,0.0,0.52,-0.26,AutoTakeoff,1.0,0.0,0.0,0.0,15.0,10.0,1.0,0.0,True,0.010951102,0.0,0.0,0.01095108,0.0,0.010951089,0.00068444386,0.34916097,0.0006844425,0.00068444305
3.398,-106.21644553100091,39.96119372165793,1.9897462812500637,4.85690880656557,-6.26912661842155,-115.69577167327442,-0.15847802,-0.009236993,-1.0144753,1.0268208,3.96596,-2.0829775,11.37414,0.013705805,0.46408123,-0.5374458,0.71021634,1519.0,64.97,7.9068585016848365,0.0238206849566573,0.6294048603691262,-0.3846130426884837,-0.1124827505785401,0.2665270238802643,0.1177915880500053,False,-575.6850185944124,-559.9120270906316,-79.63120599534123,228.05543724104209,99.50505283861182,99.50505283861182,0.0,0.0,259.0,-106.2164477,39.9611938,2018-06-19 20:08:30+00:00,2485.942,0.9,1.69,7.35,8.0,0.0,0.52,-0.26,AutoTakeoff,1.0,0.0,0.0,0.0,15.0,10.0,1.0,0.0,True,0.010951102,0.0,0.0,0.01095108,0.0,0.010951089,0.00068444386,0.34916097,0.0006844425,0.00068444305
3.434,-106.21644553100091,39.96119372165793,1.9897462812500637,4.85690880656557,-6.26912661842155,-115.69577167327442,-0.15847802,-0.009236993,-1.0144753,1.0268208,3.96596,-2.0829775,11.37414,0.013705805,0.46408123,-0.5374458,0.71021634,1519.0,64.97,7.9068585016848365,0.0238206849566573,0.6294048603691262,-0.3846130426884837,-0.1124827505785401,0.2665270238802643,0.1177915880500053,False,-575.6850185944124,-559.9120270906316,-79.63120599534123,228.05543724104209,99.50505283861182,99.50505283861182,0.0,0.0,259.0,-106.2164477,39.9611938,2018-06-19 20:08:30+00:00,2485.942,0.9,1.69,7.35,8.0,0.0,0.52,-0.26,AutoTakeoff,1.0,0.0,0.0,0.0,15.0,10.0,1.0,0.0,True,0.010951102,0.0,0.0,0.01095108,0.0,0.010951089,0.00068444386,0.34916097,0.0006844425,0.00068444305
3.477,-106.21644509586793,39.96119372485293,0.0317384687500634,3.606063049140132,-7.066202593959603,-115.64118073753782,-0.06667361,-0.04369971,-1.0309967,1.0340741,-16.934597,-1.1255167,19.947416,0.081259094,0.40772164,-0.563174,0.70000356,1516.0,65.01,7.916667280651015,0.0287662904361774,0.6748068254451791,-0.4419313921955972,-0.1800360398131783,0.3228866129801483,0.1435198137580131,False,-575.8521113473755,-560.5874109719408,-79.63257080841105,228.0925247386781,89.45114328944959,89.45114328944959,0.0,0.0,299.0,-106.2164477,39.9611938,2018-06-19 20:08:30+00:00,2485.942,0.9,1.69,7.35,8.0,0.0,0.52,-0.26,AutoTakeoff,1.0,0.0,0.0,0.0,15.0,10.0,1.0,0.0,True,0.010951102,0.0,0.0,0.01095108,0.0,0.010951089,0.00068444386,0.34916097,0.0006844425,0.00068444305
3.519,-106.21644509586793,39.96119372485293,0.0317384687500634,3.606063049140132,-7.066202593959603,-115.64118073753782,-0.06667361,-0.04369971,-1.0309967,1.0340741,-16.934597,-1.1255167,19.947416,0.081259094,0.40772164,-0.563174,0.70000356,1516.0,65.01,7.916667280651015,0.0287662904361774,0.6748068254451791,-0.4419313921955972,-0.1800360398131783,0.3228866129801483,0.1435198137580131,False,-575.8521113473755,-560.5874109719408,-79.63257080841105,228.0925247386781,89.45114328944959,89.45114328944959,0.0,0.0,299.0,-106.2164464,39.9611937,2018-06-19 20:08:30+00:00,2486.071,0.75,1.27,7.35,8.0,-0.08,0.53,-0.34,AutoTakeoff,1.0,0.0,0.0,0.0,15.0,10.0,1.0,0.0,True,0.0009058278,0.0,0.0,0.0009054121,0.0,0.0009054112,5.6614237e-05,0.3478623,5.6588255e-05,5.65882e-05
3.554,-106.21644474113388,39.96119373706626,-0.4367673906249365,2.542126552671273,-8.019261271831574,-115.6535304015522,-0.07564925,-0.05938936,-0.98703074,0.9917054,-3.932884,-0.54626256,8.6737585,0.07571786,0.3711052,-0.55922776,0.6754169,1506.0,64.99,8.402613401704746,0.0369533513776865,0.7154261814390193,-0.5004697415500186,-0.1005081676444193,0.0250257801008156,0.0453659918614544,False,-575.9393022250308,-561.6757448652971,-80.58139705182803,228.12278872800152,87.42805741583459,87.42805741583459,0.0,0.0,339.0,-106.2164464,39.9611937,2018-06-19 20:08:30+00:00,2486.071,0.75,1.27,7.35,8.0,-0.08,0.53,-0.34,AutoTakeoff,1.0,0.0,0.0,0.0,15.0,10.0,1.0,0.0,True,0.0009058278,0.0,0.0,0.0009054121,0.0,0.0009054112,5.6614237e-05,0.3478623,5.6588255e-05,5.65882e-05
3.645,-106.21644474113388,39.96119373706626,-0.4367673906249365,2.542126552671273,-8.019261271831574,-115.6535304015522,-0.07564925,-0.05938936,-0.98703074,0.9917054,-3.932884,-0.54626256,8.6737585,0.07571786,0.3711052,-0.55922776,0.6754169,1506.0,64.99,8.402613401704746,0.0369533513776865,0.7154261814390193,-0.5004697415500186,-0.1005081676444193,0.0250257801008156,0.0453659918614544,False,-575.9393022250308,-561.6757448652971,-80.58139705182803,228.12278872800152,87.42805741583459,87.42805741583459,0.0,0.0,339.0,-106.2164464,39.9611937,2018-06-19 20:08:30+00:00,2486.071,0.75,1.27,7.35,8.0,-0.08,0.53,-0.34,AutoTakeoff,1.0,0.0,0.0,0.0,15.0,10.0,1.0,0.0,True,0.0009058278,0.0,0.0,0.0009054121,0.0,0.0009054112,5.6614237e-05,0.3478623,5.6588255e-05,5.65882e-05
3.685,-106.21644475726728,39.961193823269575,1.5488283125000637,0.8420047496363448,-7.611053136500652,-116.12399795117848,-0.09962723,-0.120452866,-0.9659315,0.9784979,-0.4089913,-2.7570195,5.905296,-0.036730036,0.3874349,-0.52827746,0.6561493,1514.0,64.97,7.656406772161361,0.0389843637547606,0.7549411942651059,-0.5571217011713951,0.0119397274652341,0.0086960743856362,0.014415684015385,False,-576.1113817695289,-561.9019283708923,-80.71191203146701,228.13247222117485,-8.16343332681514,-8.16343332681514,0.0,0.0,379.0,-106.2164464,39.9611937,2018-06-19 20:08:30+00:00,2486.071,0.75,1.27,7.35,8.0,-0.08,0.53,-0.34,AutoTakeoff,1.0,0.0,0.0,0.0,15.0,10.0,1.0,0.0,False,0.0009058278,0.0,0.0,0.0009054121,0.0,0.0009054112,5.6614237e-05,0.3478623,5.6588255e-05,5.65882e-05
3.724,-106.21644475726728,39.961193823269575,1.5488283125000637,0.8420047496363448,-7.611053136500652,-116.12399795117848,-0.09962723,-0.120452866,-0.9659315,0.9784979,-0.4089913,-2.7570195,5.905296,-0.036730036,0.3874349,-0.52827746,0.6561493,1514.0,64.97,7.656406772161361,0.0389843637547606,0.7549411942651059,-0.5571217011713951,0.0119397274652341,0.0086960743856362,0.014415684015385,False,-576.1113817695289,-561.9019283708923,-80.71191203146701,228.13247222117485,-8.16343332681514,-8.16343332681514,0.0,0.0,379.0,-106.2164454,39.9611938,2018-06-19 20:08:30+00:00,2486.189,0.75,1.27,7.35,8.0,0.05,0.4,-0.41,AutoTakeoff,1.0,0.0,0.0,0.0,15.0,10.0,1.0,0.0,False,0.002247274,0.0,0.0,0.0022473012,0.0,0.0022465785,0.00014045462,0.3417278,0.00014045632,0.00014041115
3.762,-106.2164443860758,39.961193819009566,0.0405275312500634,2.152476126790233,-5.648113536258931,-116.08599238836165,-0.108000755,-0.08981341,-1.0327243,1.0422331,23.309269,-4.402805,32.074562,-0.08872516,0.39447764,-0.51012164,0.6509292,1505.0,64.95,6.039423024512567,0.0324566200889044,0.7956260353572215,-0.6111521719360962,0.0639348484078267,0.001653338570588,-0.003740129201778,False,-576.48392512137,-560.7103703452668,-79.31771075810649,228.16411191451087,90.857831781358,90.857831781358,0.0,0.0,419.0,-106.2164454,39.9611938,2018-06-19 20:08:30+00:00,2486.189,0.75,1.27,7.35,8.0,0.05,0.4,-0.41,AutoTakeoff,1.0,0.0,0.0,0.0,15.0,10.0,1.0,0.0,False,0.002247274,0.0,0.0,0.0022473012,0.0,0.0022465785,0.00014045462,0.3417278,0.00014045632,0.00014041115
3.851,-106.2164443860758,39.961193819009566,0.0405275312500634,2.152476126790233,-5.648113536258931,-116.08599238836165,-0.108000755,-0.08981341,-1.0327243,1.0422331,23.309269,-4.402805,32.074562,-0.08872516,0.39447764,-0.51012164,0.6509292,1505.0,64.95,6.039423024512567,0.0324566200889044,0.7956260353572215,-0.6111521719360962,0.0639348484078267,0.001653338570588,-0.003740129201778,False,-576.48392512137,-560.7103703452668,-79.31771075810649,228.16411191451087,90.857831781358,90.857831781358,0.0,0.0,419.0,-106.2164454,39.9611938,2018-06-19 20:08:30+00:00,2486.189,0.75,1.27,7.35,8.0,0.05,0.4,-0.41,AutoTakeoff,1.0,0.0,0.0,0.0,15.0,10.0,1.0,0.0,False,0.002247274,0.0,0.0,0.0022473012,0.0,0.0022465785,0.00014045462,0.3417278,0.00014045632,0.00014041115
3.893,-106.21644389414068,39.96119372555642,0.7495119062500635,3.000051241738826,-5.635780314105878,-116.03111714024092,-0.10305512,-0.087483495,-0.95231193,0.96185845,8.45445,-2.757171,12.029609,-0.09126699,0.38129276,-0.5211937,0.6521937,1517.0,64.96,6.375493177317238,0.0230774516732559,0.8360504723433078,-0.6648927395729469,0.0871711143415553,-0.1502683290998785,0.0203635239521965,False,-576.8570226135082,-559.0552022081175,-78.61490273003402,228.20730744671107,103.920138166027,103.920138166027,0.0,0.0,459.0,-106.2164454,39.9611938,2018-06-19 20:08:30+00:00,2486.189,0.75,1.27,7.35,8.0,0.05,0.4,-0.41,AutoTakeoff,1.0,0.0,0.0,0.0,15.0,10.0,1.0,0.0,False,0.002247274,0.0,0.0,0.0022473012,0.0,0.0022465785,0.00014045462,0.3417278,0.00014045632,0.00014041115
3.936,-106.21644389414068,39.96119372555642,0.7495119062500635,3.000051241738826,-5.635780314105878,-116.03111714024092,-0.10305512,-0.087483495,-0.95231193,0.96185845,8.45445,-2.757171,12.029609,-0.09126699,0.38129276,-0.5211937,0.6521937,1517.0,64.96,6.375493177317238,0.0230774516732559,0.8360504723433078,-0.6648927395729469,0.0871711143415553,-0.1502683290998785,0.0203635239521965,False,-576.8570226135082,-559.0552022081175,-78.61490273003402,228.20730744671107,103.920138166027,103.920138166027,0.0,0.0,459.0,-106.2164444,39.9611938,2018-06-19 20:08:30+00:00,2486.302,0.75,1.27,7.36,8.0,0.0,0.44,-0.44,AutoTakeoff,1.0,0.0,0.0,0.0,15.0,10.0,1.0,0.0,False,0.0047723767,0.0,0.0,0.004772448,0.0,0.0047717486,0.00029827355,0.33806857,0.000298278,0.00029823428
3.971,-106.21644341121076,39.961193618040035,1.1801759687500637,3.811205182451373,-5.975942672085456,-116.03798810824745,-0.10754863,-0.11425065,-1.0037707,1.0159605,8.965455,-1.8222164,9.165791,-0.11793202,0.40034246,-0.48134992,0.637087,1503.0,64.96,7.073050220313678,0.012179541750978,0.8767685915073198,-0.7171187503911778,0.1138361462514979,-0.1693180331747381,-0.0194802439291968,False,-577.0955789530265,-558.1477383000966,-79.06602126130348,228.2501680347027,106.19659436372692,106.19659436372692,0.0,0.0,499.0,-106.2164444,39.9611938,2018-06-19 20:08:30+00:00,2486.302,0.75,1.27,7.36,8.0,0.0,0.44,-0.44,AutoTakeoff,1.0,0.0,0.0,0.0,15.0,10.0,1.0,0.0,False,0.0047723767,0.0,0.0,0.004772448,0.0,0.0047717486,0.00029827355,0.33806857,0.000298278,0.00029823428
4.059,-106.21644341121076,39.961193618040035,1.1801759687500637,3.811205182451373,-5.975942672085456,-116.03798810824745,-0.10754863,-0.11425065,-1.0037707,1.0159605,8.965455,-1.8222164,9.165791,-0.11793202,0.40034246,-0.48134992,0.637087,1503.0,64.96,7.073050220313678,0.012179541750978,0.8767685915073198,-0.7171187503911778,0.1138361462514979,-0.1693180331747381,-0.0194802439291968,False,-577.0955789530265,-558.1477383000966,-79.06602126130348,228.2501680347027,106.19659436372692,106.19659436372692,0.0,0.0,499.0,-106.2164444,39.9611938,2018-06-19 20:08:30+00:00,2486.302,0.75,1.27,7.36,8.0,0.0,0.44,-0.44,AutoTakeoff,1.0,0.0,0.0,0.0,15.0,10.0,1.0,0.0,False,0.0047723767,0.0,0.0,0.004772448,0.0,0.0047717486,0.00029827355,0.33806857,0.000298278,0.00029823428
4.102,-106.2164429155104,39.96119352885993,1.3015138593750637,4.624002021093485,-5.648413839097919,-115.98485677464888,-0.13107148,-0.07049504,-0.97661465,0.9878894,4.347744,-2.1580882,7.4940224,-0.12507269,0.46509704,-0.4675637,0.67124826,1516.0,65.01,7.280869732265801,-0.0004831334638915053,0.921865574958778,-0.7665654660548125,0.1209768124979121,-0.2340726086656897,-0.0332664704401984,False,-577.3029877085949,-557.4540039444329,-79.3926439306757,228.2935640827979,103.20929027468216,103.20929027468216,0.0,0.0,539.0,-106.2164444,39.9611938,2018-06-19 20:08:30+00:00,2486.302,0.75,1.27,7.36,8.0,0.0,0.44,-0.44,AutoTakeoff,1.0,0.0,0.0,0.0,15.0,10.0,1.0,0.0,False,0.0047723767,0.0,0.0,0.004772448,0.0,0.0047717486,0.00029827355,0.33806857,0.000298278,0.00029823428
4.144,-106.2164429155104,39.96119352885993,1.3015138593750637,4.624002021093485,-5.648413839097919,-115.98485677464888,-0.13107148,-0.07049504,-0.97661465,0.9878894,4.347744,-2.1580882,7.4940224,-0.12507269,0.46509704,-0.4675637,0.67124826,1516.0,65.01,7.280869732265801,-0.0004831334638915053,0.921865574958778,-0.7665654660548125,0.1209768124979121,-0.2340726086656897,-0.0332664704401984,False,-577.3029877085949,-557.4540039444329,-79.3926439306757,228.2935640827979,103.20929027468216,103.20929027468216,0.0,0.0,539.0,-106.2164434,39.9611935,2018-06-19 20:08:31+00:00,2486.392,0.83,1.49,7.39,8.0,-0.15,0.42,-0.44,AutoTakeoff,1.0,0.0,0.0,0.0,15.0,10.0,1.0,0.0,False,0.0059923134,0.0,0.0,0.0059924736,0.0,0.005992495,0.0003745196,0.33384433,0.0003745296,0.00037453094
4.179,-106.21644242999956,39.96119347756394,1.0842287031250637,4.840634502866261,-6.29972634153475,-115.9323435101601,-0.11950697,-0.053716846,-0.98849756,0.9971433,2.5255387,-0.93126833,4.9847236,-0.09093204,0.47242117,-0.4698264,0.6724487,1507.0,65.01,7.921115826607751,-0.0117223932114178,0.9706469637136106,-0.8153401883999276,0.0026818054421407,-0.0730645305018733,-0.0403796745319945,False,-577.4637345623389,-557.0963700652211,-79.90803136968462,228.33533478010952,97.84834798078316,97.84834798078316,0.0,0.0,579.0,-106.2164434,39.9611935,2018-06-19 20:08:31+00:00,2486.392,0.83,1.49,7.39,8.0,-0.15,0.42,-0.44,AutoTakeoff,1.0,0.0,0.0,0.0,15.0,10.0,1.0,0.0,False,0.0059923134,0.0,0.0,0.0059924736,0.0,0.005992495,0.0003745196,0.33384433,0.0003745296,0.00037453094
4.268,-106.21644242999956,39.96119347756394,1.0842287031250637,4.840634502866261,-6.29972634153475,-115.9323435101601,-0.11950697,-0.053716846,-0.98849756,0.9971433,2.5255387,-0.93126833,4.9847236,-0.09093204,0.47242117,-0.4698264,0.6724487,1507.0,65.01,7.921115826607751,-0.0117223932114178,0.9706469637136106,-0.8153401883999276,0.0026818054421407,-0.0730645305018733,-0.0403796745319945,False,-577.4637345623389,-557.0963700652211,-79.90803136968462,228.33533478010952,97.84834798078316,97.84834798078316,0.0,0.0,579.0,-106.2164434,39.9611935,2018-06-19 20:08:31+00:00,2486.392,0.83,1.49,7.39,8.0,-0.15,0.42,-0.44,AutoTakeoff,1.0,0.0,0.0,0.0,15.0,10.0,1.0,0.0,False,0.0059923134,0.0,0.0,0.0059924736,0.0,0.005992495,0.0003745196,0.33384433,0.0003745296,0.00037453094
4.31,-106.21644184536434,39.96119340905204,0.9536134687500636,4.724257743355977,-6.353926915566478,-115.90157420471822,-0.1118045,-0.06851523,-1.020494,1.0288842,1.9726385,0.23736076,2.7538164,-0.10812899,0.47470656,-0.4582306,0.66859066,1510.0,65.0,7.894832193039709,-0.0220952175045034,1.020000619670176,-0.8637000929718806,0.0198787512882215,-0.0753499215941737,-0.0519754601498229,False,-577.4998932287908,-556.8619756096833,-80.22601213983545,228.3857414588061,98.69266331372064,98.69266331372064,0.0,0.0,619.0,-106.2164434,39.9611935,2018-06-19 20:08:31+00:00,2486.392,0.83,1.49,7.39,8.0,-0.15,0.42,-0.44,AutoTakeoff,1.0,0.0,0.0,0.0,15.0,10.0,1.0,0.0,False,0.0059923134,0.0,0.0,0.0059924736,0.0,0.005992495,0.0003745196,0.33384433,0.0003745296,0.00037453094
4.349,-106.21644184536434,39.96119340905204,0.9536134687500636,4.724257743355977,-6.353926915566478,-115.90157420471822,-0.1118045,-0.06851523,-1.020494,1.0288842,1.9726385,0.23736076,2.7538164,-0.10812899,0.47470656,-0.4582306,0.66859066,1510.0,65.0,7.894832193039709,-0.0220952175045034,1.020000619670176,-0.8637000929718806,0.0198787512882215,-0.0753499215941737,-0.0519754601498229,False,-577.4998932287908,-556.8619756096833,-80.22601213983545,228.3857414588061,98.69266331372064,98.69266331372064,0.0,0.0,619.0,-106.2164423,39.9611934,2018-06-19 20:08:31+00:00,2486.473,0.83,1.49,7.41,8.0,-0.05,0.46,-0.43,AutoTakeoff,1.0,0.0,0.0,0.0,15.0,10.0,1.0,0.0,False,0.0026631479,0.0,0.0,0.002662756,0.0,0.0026621306,0.00016644674,0.33260894,0.00016642225,0.00016638316
4.388,-106.21644128556606,39.96119335651844,0.4184572187500635,4.698990767239116,-6.799120532979509,-115.9062141425717,-0.111402355,-0.06372796,-1.019132,1.0271815,-9.627677,-0.94875467,12.763619,-0.0880447,0.473102,-0.46559072,0.669591,1506.0,64.97,8.240030513185063,-0.0323145927874897,1.0693752906373302,-0.9118251848429236,-0.00020553295774633495,-0.0737453645568202,-0.0446153594036681,False,-577.5369522314882,-557.2607534013861,-80.75905994233072,228.43380857830067,96.98025910149155,96.98025910149155,0.0,0.0,659.0,-106.2164423,39.9611934,2018-06-19 20:08:31+00:00,2486.473,0.83,1.49,7.41,8.0,-0.05,0.46,-0.43,AutoTakeoff,1.0,0.0,0.0,0.0,15.0,10.0,1.0,0.0,False,0.0026631479,0.0,0.0,0.002662756,0.0,0.0026621306,0.00016644674,0.33260894,0.00016642225,0.00016638316
4.478,-106.21644128556606,39.96119335651844,0.4184572187500635,4.698990767239116,-6.799120532979509,-115.9062141425717,-0.111402355,-0.06372796,-1.019132,1.0271815,-9.627677,-0.94875467,12.763619,-0.0880447,0.473102,-0.46559072,0.669591,1506.0,64.97,8.240030513185063,-0.0323145927874897,1.0693752906373302,-0.9118251848429236,-0.00020553295774633495,-0.0737453645568202,-0.0446153594036681,False,-577.5369522314882,-557.2607534013861,-80.75905994233072,228.43380857830067,96.98025910149155,96.98025910149155,0.0,0.0,659.0,-106.2164423,39.9611934,2018-06-19 20:08:31+00:00,2486.473,0.83,1.49,7.41,8.0,-0.05,0.46,-0.43,AutoTakeoff,1.0,0.0,0.0,0.0,15.0,10.0,1.0,0.0,False,0.0026631479,0.0,0.0,0.002662756,0.0,0.0026621306,0.00016644674,0.33260894,0.00016642225,0.00016638316
4.518,-106.2164406980706,39.9611932159935,1.5051271406250637,4.56934664686275,-7.1390901377041,-115.9503744109399,-0.118336946,-0.08881962,-1.0158786,1.0265971,8.936876,-1.5569394,10.682471,-0.035577077,0.4685139,-0.46759206,0.6628826,1498.0,65.01,8.450908832345124,-0.0387544847304219,1.11842736452771,-0.9604379472510072,-0.0574686438733364,0.0036996303542752,0.0349063239653432,False,-577.6674826182111,-557.2967396299701,-80.89890519369838,228.48626151577835,107.33143650821934,107.33143650821934,0.0,0.0,699.0,-106.2164423,39.9611934,2018-06-19 20:08:31+00:00,2486.473,0.83,1.49,7.41,8.0,-0.05,0.46,-0.43,AutoTakeoff,1.0,0.0,0.0,0.0,15.0,10.0,1.0,0.0,False,0.0026631479,0.0,0.0,0.002662756,0.0,0.0026621306,0.00016644674,0.33260894,0.00016642225,0.00016638316
4.555,-106.2164406980706,39.9611932159935,1.5051271406250637,4.56934664686275,-7.1390901377041,-115.9503744109399,-0.118336946,-0.08881962,-1.0158786,1.0265971,8.936876,-1.5569394,10.682471,-0.035577077,0.4685139,-0.46759206,0.6628826,1498.0,65.01,8.450908832345124,-0.0387544847304219,1.11842736452771,-0.9604379472510072,-0.0574686438733364,0.0036996303542752,0.0349063239653432,False,-577.6674826182111,-557.2967396299701,-80.89890519369838,228.48626151577835,107.33143650821934,107.33143650821934,0.0,0.0,699.0,-106.2164412,39.9611932,2018-06-19 20:08:31+00:00,2486.604,0.75,1.27,7.41,8.0,-0.08,0.48,-0.45,AutoTakeoff,1.0,0.0,0.0,0.0,15.0,10.0,1.0,0.0,False,0.0034117617,0.0,0.0,0.0034116497,0.0,0.0034115405,0.00021323511,0.32881388,0.00021322811,0.00021322128
4.596,-106.2164400283662,39.961192952423325,1.3022462812500637,5.033094064257722,-7.185010833698751,-116.01986643166316,-0.12320011,-0.09843745,-0.970535,0.98326313,8.227728,-1.0657347,12.097225,-0.03437991,0.4584125,-0.47759104,0.6628855,1498.0,65.01,8.742494844476212,-0.0423945196640183,1.1666576355001634,-1.0096181591232334,-0.0586658106142307,0.0138010381206173,0.0449053011496388,False,-577.8039468318761,-556.4036228654787,-81.063475815699,228.55042410001656,117.17900015477302,117.17900015477302,0.0,0.0,739.0,-106.2164412,39.9611932,2018-06-19 20:08:31+00:00,2486.604,0.75,1.27,7.41,8.0,-0.08,0.48,-0.45,AutoTakeoff,1.0,0.0,0.0,0.0,15.0,10.0,2.0,0.0,False,0.0034117617,0.0,0.0,0.0034116497,0.0,0.0034115405,0.00021323511,0.32881388,0.00021322811,0.00021322128
4.684,-106.2164400283662,39.961192952423325,1.3022462812500637,5.033094064257722,-7.185010833698751,-116.01986643166316,-0.12320011,-0.09843745,-0.970535,0.98326313,8.227728,-1.0657347,12.097225,-0.03437991,0.4584125,-0.47759104,0.6628855,1498.0,65.01,8.742494844476212,-0.0423945196640183,1.1666576355001634,-1.0096181591232334,-0.0586658106142307,0.0138010381206173,0.0449053011496388,False,-577.8039468318761,-556.4036228654787,-81.063475815699,228.55042410001656,117.17900015477302,117.17900015477302,0.0,0.0,739.0,-106.2164412,39.9611932,2018-06-19 20:08:31+00:00,2486.604,0.75,1.27,7.41,8.0,-0.08,0.48,-0.45,AutoTakeoff,1.0,0.0,0.0,0.0,15.0,10.0,2.0,0.0,False,0.0034117617,0.0,0.0,0.0034116497,0.0,0.0034115405,0.00021323511,0.32881388,0.00021322811,0.00021322128
4.727,-106.21643945757398,39.96119292341096,0.7822267500000635,4.691900225920304,-7.300415459800732,-116.14605171188067,-0.11212416,-0.11169422,-1.0018575,1.014281,-8.619274,-0.330258,10.281742,-0.049361534,0.44160816,-0.4866707,0.65901643,1511.0,65.05,8.650936145783009,-0.0467581829177596,1.2135566001971565,-1.0598646472156317,-0.0436841868752266,0.0306053756221432,0.0539849660952412,False,-577.8766902898437,-556.4240258568371,-81.81383634155246,228.59917879702795,93.79394992808965,93.79394992808965,0.0,0.0,779.0,-106.2164412,39.9611932,2018-06-19 20:08:31+00:00,2486.604,0.75,1.27,7.41,8.0,-0.08,0.48,-0.45,AutoTakeoff,1.0,0.0,0.0,0.0,15.0,10.0,2.0,0.0,False,0.0034117617,0.0,0.0,0.0034116497,0.0,0.0034115405,0.00021323511,0.32881388,0.00021322811,0.00021322128
4.766,-106.21643945757398,39.96119292341096,0.7822267500000635,4.691900225920304,-7.300415459800732,-116.14605171188067,-0.11212416,-0.11169422,-1.0018575,1.014281,-8.619274,-0.330258,10.281742,-0.049361534,0.44160816,-0.4866707,0.65901643,1511.0,65.05,8.650936145783009,-0.0467581829177596,1.2135566001971565,-1.0598646472156317,-0.0436841868752266,0.0306053756221432,0.0539849660952412,False,-577.8766902898437,-556.4240258568371,-81.81383634155246,228.59917879702795,93.79394992808965,93.79394992808965,0.0,0.0,779.0,-106.2164403,39.9611931,2018-06-19 20:08:31+00:00,2486.686,0.75,1.27,7.41,8.0,-0.08,0.43,-0.43,AutoTakeoff,1.0,0.0,0.0,0.0,15.0,10.0,2.0,0.0,False,0.0033300032,0.0,0.0,0.0033299595,0.0,0.0033300659,0.0002081252,0.32457143,0.00020812247,0.00020812912
4.804,-106.21643893388595,39.96119288929832,1.0727540937500637,4.137888600602143,-7.494464973137978,-116.40756018248376,-0.10297266,-0.086695895,-1.0236444,1.032457,-6.3559456,-4.379886,8.133202,-0.06273244,0.41859287,-0.50815135,0.66134197,1500.0,65.04,8.538307908961137,-0.0525958407798761,1.25835436201813,-1.111673235992198,-0.0535361737487348,0.0626501412069978,0.0275887425208049,False,-578.1219863412584,-557.2039090496893,-81.97179526432556,228.64397290904543,94.8576080037668,94.8576080037668,0.0,0.0,819.0,-106.2164403,39.9611931,2018-06-19 20:08:31+00:00,2486.686,0.75,1.27,7.41,8.0,-0.08,0.43,-0.43,AutoTakeoff,1.0,0.0,0.0,0.0,15.0,10.0,2.0,0.0,False,0.0033300032,0.0,0.0,0.0033299595,0.0,0.0033300659,0.0002081252,0.32457143,0.00020812247,0.00020812912
4.895,-106.21643893388595,39.96119288929832,1.0727540937500637,4.137888600602143,-7.494464973137978,-116.40756018248376,-0.10297266,-0.086695895,-1.0236444,1.032457,-6.3559456,-4.379886,8.133202,-0.06273244,0.41859287,-0.50815135,0.66134197,1500.0,65.04,8.538307908961137,-0.0525958407798761,1.25835436201813,-1.111673235992198,-0.0535361737487348,0.0626501412069978,0.0275887425208049,False,-578.1219863412584,-557.2039090496893,-81.97179526432556,228.64397290904543,94.8576080037668,94.8576080037668,0.0,0.0,819.0,-106.2164403,39.9611931,2018-06-19 20:08:31+00:00,2486.686,0.75,1.27,7.41,8.0,-0.08,0.43,-0.43,AutoTakeoff,1.0,0.0,0.0,0.0,15.0,10.0,2.0,0.0,False,0.0033300032,0.0,0.0,0.0033299595,0.0,0.0033300659,0.0002081252,0.32457143,0.00020812247,0.00020812912
4.935,-106.2164384346662,39.96119280472019,1.4291994062500637,4.146973490773607,-6.811250374447999,-116.46663701710374,-0.11111749,-0.09624794,-1.0132518,1.0238603,7.3401685,1.463411,7.820196,-0.096036874,0.38237762,-0.53309214,0.6630407,1500.0,65.03,7.954211470876001,-0.0608666911238096,1.3000797231794277,-1.1659152600248444,-0.0202317432043584,0.0988653869307221,0.052529531266685,False,-578.2739157579704,-557.152637428857,-81.72023820874129,228.68754772959463,102.46409793238163,102.46409793238163,0.0,0.0,859.0,-106.2164403,39.9611931,2018-06-19 20:08:31+00:00,2486.686,0.75,1.27,7.41,8.0,-0.08,0.43,-0.43,AutoTakeoff,1.0,0.0,0.0,0.0,15.0,10.0,2.0,0.0,False,0.0033300032,0.0,0.0,0.0033299595,0.0,0.0033300659,0.0002081252,0.32457143,0.00020812247,0.00020812912
4.974,-106.2164384346662,39.96119280472019,1.4291994062500637,4.146973490773607,-6.811250374447999,-116.46663701710374,-0.11111749,-0.09624794,-1.0132518,1.0238603,7.3401685,1.463411,7.820196,-0.096036874,0.38237762,-0.53309214,0.6630407,1500.0,65.03,7.954211470876001,-0.0608666911238096,1.3000797231794277,-1.1659152600248444,-0.0202317432043584,0.0988653869307221,0.052529531266685,False,-578.2739157579704,-557.152637428857,-81.72023820874129,228.68754772959463,102.46409793238163,102.46409793238163,0.0,0.0,859.0,-106.2164392,39.961193,2018-06-19 20:08:31+00:00,2486.778,0.75,1.27,7.42,8.0,-0.07,0.45,-0.44,AutoTakeoff,1.0,0.0,0.0,0.0,15.0,10.0,2.0,0.0,False,0.0019019445,0.0,0.0,0.0019020856,0.0,0.0019022949,0.00011887153,0.32187468,0.00011888035,0.00011889343
5.012,-106.21643793249686,39.96119273849138,1.1599122968750637,4.835098271067883,-6.012290921893017,-116.32381387088576,-0.11244768,-0.09349418,-0.98692477,0.99770045,6.717234,0.19775185,10.060842,-0.103543796,0.38143143,-0.5217658,0.6545616,1515.0,65.02,7.693215794955457,-0.0712544118167706,1.3398342502624327,-1.2208182222628192,-0.0127248213169606,0.0998115808642091,0.0412032182478862,False,-578.1874560046936,-556.4209815404084,-81.21258704405373,228.7309758971083,99.76307876595776,99.76307876595776,0.0,0.0,899.0,-106.2164392,39.961193,2018-06-19 20:08:31+00:00,2486.778,0.75,1.27,7.42,8.0,-0.07,0.45,-0.44,AutoTakeoff,1.0,0.0,0.0,0.0,15.0,10.0,2.0,0.0,False,0.0019019445,0.0,0.0,0.0019020856,0.0,0.0019022949,0.00011887153,0.32187468,0.00011888035,0.00011889343
5.101,-106.21643793249686,39.96119273849138,1.1599122968750637,4.835098271067883,-6.012290921893017,-116.32381387088576,-0.11244768,-0.09349418,-0.98692477,0.99770045,6.717234,0.19775185,10.060842,-0.103543796,0.38143143,-0.5217658,0.6545616,1515.0,65.02,7.693215794955457,-0.0712544118167706,1.3398342502624327,-1.2208182222628192,-0.0127248213169606,0.0998115808642091,0.0412032182478862,False,-578.1874560046936,-556.4209815404084,-81.21258704405373,228.7309758971083,99.76307876595776,99.76307876595776,0.0,0.0,899.0,-106.2164392,39.961193,2018-06-19 20:08:31+00:00,2486.778,0.75,1.27,7.42,8.0,-0.07,0.45,-0.44,AutoTakeoff,1.0,0.0,0.0,0.0,15.0,10.0,2.0,0.0,False,0.0019019445,0.0,0.0,0.0019020856,0.0,0.0019022949,0.00011887153,0.32187468,0.00011888035,0.00011889343
5.143,-106.21643754397648,39.961192661511575,1.6831056562500637,5.000908259354257,-5.853487722939758,-116.13938469283026,-0.12692484,-0.09702597,-0.9932124,1.0059795,3.4005146,-1.0076923,10.579923,-0.09023303,0.3901211,-0.51823306,0.6549061,1500.0,65.03,7.676417020219972,-0.081345969111684,1.3800153536991129,-1.2749795413554192,0.0091652589088294,-0.0109747082699213,0.0040701383910017,False,-578.2296362854954,-555.8940669218701,-81.34176213119973,228.7651774288436,104.49374324007977,104.49374324007977,0.0,0.0,939.0,-106.2164392,39.961193,2018-06-19 20:08:31+00:00,2486.778,0.75,1.27,7.42,8.0,-0.07,0.45,-0.44,AutoTakeoff,1.0,0.0,0.0,0.0,15.0,10.0,2.0,0.0,False,0.0019019445,0.0,0.0,0.0019020856,0.0,0.0019022949,0.00011887153,0.32187468,0.00011888035,0.00011889343
5.183,-106.21643754397648,39.961192661511575,1.6831056562500637,5.000908259354257,-5.853487722939758,-116.13938469283026,-0.12692484,-0.09702597,-0.9932124,1.0059795,3.4005146,-1.0076923,10.579923,-0.09023303,0.3901211,-0.51823306,0.6549061,1500.0,65.03,7.676417020219972,-0.081345969111684,1.3800153536991129,-1.2749795413554192,0.0091652589088294,-0.0109747082699213,0.0040701383910017,False,-578.2296362854954,-555.8940669218701,-81.34176213119973,228.7651774288436,104.49374324007977,104.49374324007977,0.0,0.0,939.0,-106.2164383,39.9611927,2018-06-19 20:08:32+00:00,2486.891,0.73,1.22,7.42,8.0,-0.1,0.4,-0.47,AutoTakeoff,1.0,0.0,0.0,0.0,15.0,10.0,2.0,0.0,False,0.0015427683,0.0,0.0,0.0015431204,0.0,0.0015427639,9.642302e-05,0.32281542,9.644502e-05,9.6422744e-05
5.221,-106.21643714138963,39.961192597386706,2.4682619062500635,4.90644589441539,-6.248857376967238,-116.06936222569516,-0.12003485,-0.093418404,-0.9892649,1.0008898,4.794606,0.78200346,4.8694224,-0.077000186,0.41396216,-0.5091011,0.6606645,1508.0,65.02,7.921057416080479,-0.0900551817374015,1.4218906002698386,-1.3284813032330884,-0.0040675831789162,-0.034815761517373,-0.005061829630391,False,-578.2413897664742,-555.4672793954797,-81.8782538710144,228.80022240967727,101.73954435690388,101.73954435690388,0.0,0.0,979.0,-106.2164383,39.9611927,2018-06-19 20:08:32+00:00,2486.891,0.73,1.22,7.42,8.0,-0.1,0.4,-0.47,AutoTakeoff,1.0,0.0,0.0,0.0,15.0,10.0,2.0,0.0,False,0.0015427683,0.0,0.0,0.0015431204,0.0,0.0015427639,9.642302e-05,0.32281542,9.644502e-05,9.6422744e-05
5.311,-106.21643714138963,39.961192597386706,2.4682619062500635,4.90644589441539,-6.248857376967238,-116.06936222569516,-0.12003485,-0.093418404,-0.9892649,1.0008898,4.794606,0.78200346,4.8694224,-0.077000186,0.41396216,-0.5091011,0.6606645,1508.0,65.02,7.921057416080479,-0.0900551817374015,1.4218906002698386,-1.3284813032330884,-0.0040675831789162,-0.034815761517373,-0.005061829630391,False,-578.2413897664742,-555.4672793954797,-81.8782538710144,228.80022240967727,101.73954435690388,101.73954435690388,0.0,0.0,979.0,-106.2164383,39.9611927,2018-06-19 20:08:32+00:00,2486.891,0.73,1.22,7.42,8.0,-0.1,0.4,-0.47,AutoTakeoff,1.0,0.0,0.0,0.0,15.0,10.0,2.0,0.0,False,0.0015427683,0.0,0.0,0.0015431204,0.0,0.0015427639,9.642302e-05,0.32281542,9.644502e-05,9.6422744e-05
5.352,-106.2164366662024,39.961192561258045,0.7250978437500635,4.952175761158501,-6.586215474825903,-116.04025538766116,-0.12886468,-0.07866975,-0.9762659,0.9878715,-3.6126373,-1.6058124,8.148739,-0.06463189,0.4226399,-0.50000095,0.65787745,1501.0,64.99,8.214285222271034,-0.0974332929426999,1.4654721346879196,-1.3810489666046075,-0.0164358822459366,-0.043493512343255,-0.0141619687714737,False,-578.2843048637792,-555.4057064902355,-82.2668384762943,228.84092073377568,95.66488001363736,95.66488001363736,0.0,0.0,1019.0,-106.2164383,39.9611927,2018-06-19 20:08:32+00:00,2486.891,0.73,1.22,7.42,8.0,-0.1,0.4,-0.47,AutoTakeoff,1.0,0.0,0.0,0.0,15.0,10.0,2.0,0.0,False,0.0015427683,0.0,0.0,0.0015431204,0.0,0.0015427639,9.642302e-05,0.32281542,9.644502e-05,9.6422744e-05
5.391,-106.2164366662024,39.961192561258045,0.7250978437500635,4.952175761158501,-6.586215474825903,-116.04025538766116,-0.12886468,-0.07866975,-0.9762659,0.9878715,-3.6126373,-1.6058124,8.148739,-0.06463189,0.4226399,-0.50000095,0.65787745,1501.0,64.99,8.214285222271034,-0.0974332929426999,1.4654721346879196,-1.3810489666046075,-0.0164358822459366,-0.043493512343255,-0.0141619687714737,False,-578.2843048637792,-555.4057064902355,-82.2668384762943,228.84092073377568,95.66488001363736,95.66488001363736,0.0,0.0,1019.0,-106.2164374,39.9611926,2018-06-19 20:08:32+00:00,2486.993,0.73,1.22,7.42,8.0,-0.1,0.38,-0.48,AutoTakeoff,1.0,0.0,0.0,0.0,15.0,10.0,2.0,0.0,False,0.0015808925,0.0,0.0,0.0015806876,0.0,0.0015809363,9.880578e-05,0.32122695,9.8792974e-05,9.8808516e-05
5.429,-106.21643627645302,39.96119258404649,1.8984376875000637,4.82469717712042,-7.09379918341806,-116.06545160309663,-0.122114435,-0.079151705,-0.9770216,0.98779964,-1.5543859,-1.0871519,2.1637747,-0.059696466,0.430392,-0.46626106,0.63733846,1504.0,65.04,8.551551148344682,-0.103908095602609,1.509896540917529,-1.431370198437703,0.0321325466932904,-0.0846982105936371,0.0311048090457916,False,-578.4245497247489,-555.6747960001213,-82.58370080178757,228.8742350553375,85.63774564262152,85.63774564262152,0.0,0.0,1059.0,-106.2164374,39.9611926,2018-06-19 20:08:32+00:00,2486.993,0.73,1.22,7.42,8.0,-0.1,0.38,-0.48,AutoTakeoff,1.0,0.0,0.0,0.0,15.0,10.0,2.0,0.0,False,0.0015808925,0.0,0.0,0.0015806876,0.0,0.0015809363,9.880578e-05,0.32122695,9.8792974e-05,9.8808516e-05
5.518,-106.21643627645302,39.96119258404649,1.8984376875000637,4.82469717712042,-7.09379918341806,-116.06545160309663,-0.122114435,-0.079151705,-0.9770216,0.98779964,-1.5543859,-1.0871519,2.1637747,-0.059696466,0.430392,-0.46626106,0.63733846,1504.0,65.04,8.551551148344682,-0.103908095602609,1.509896540917529,-1.431370198437703,0.0321325466932904,-0.0846982105936371,0.0311048090457916,False,-578.4245497247489,-555.6747960001213,-82.58370080178757,228.8742350553375,85.63774564262152,85.63774564262152,0.0,0.0,1059.0,-106.2164374,39.9611926,2018-06-19 20:08:32+00:00,2486.993,0.73,1.22,7.42,8.0,-0.1,0.38,-0.48,AutoTakeoff,1.0,0.0,0.0,0.0,15.0,10.0,2.0,0.0,False,0.0015808925,0.0,0.0,0.0015806876,0.0,0.0015809363,9.880578e-05,0.32122695,9.8792974e-05,9.8808516e-05
5.56,-106.21643579474092,39.96119247757882,1.1088869062500637,4.74263317303154,-7.091150033659342,-116.15741490260936,-0.111694366,-0.09067099,-1.0355393,1.0454848,-2.825107,-2.2607446,4.568437,-0.05824341,0.42028725,-0.46527052,0.62969065,1506.0,65.03,8.504262226311516,-0.1100501975278156,1.5541984250022178,-1.4798827301263326,0.0306794897617947,-0.0745934649671876,0.0301142692565917,False,-578.5989023035877,-555.9028723185203,-82.38423641365772,228.91696352381356,106.08525415696644,106.08525415696644,0.0,0.0,1099.0,-106.2164374,39.9611926,2018-06-19 20:08:32+00:00,2486.993,0.73,1.22,7.42,8.0,-0.1,0.38,-0.48,AutoTakeoff,1.0,0.0,0.0,0.0,15.0,10.0,2.0,0.0,False,0.0015808925,0.0,0.0,0.0015806876,0.0,0.0015809363,9.880578e-05,0.32122695,9.8792974e-05,9.8808516e-05
5.599,-106.21643579474092,39.96119247757882,1.1088869062500637,4.74263317303154,-7.091150033659342,-116.15741490260936,-0.111694366,-0.09067099,-1.0355393,1.0454848,-2.825107,-2.2607446,4.568437,-0.05824341,0.42028725,-0.46527052,0.62969065,1506.0,65.03,8.504262226311516,-0.1100501975278156,1.5541984250022178,-1.4798827301263326,0.0306794897617947,-0.0745934649671876,0.0301142692565917,False,-578.5989023035877,-555.9028723185203,-82.38423641365772,228.91696352381356,106.08525415696644,106.08525415696644,0.0,0.0,1099.0,-106.2164362,39.9611925,2018-06-19 20:08:32+00:00,2487.096,0.81,1.39,7.43,8.0,-0.07,0.48,-0.48,AutoTakeoff,1.0,0.0,0.0,0.0,15.0,10.0,2.0,0.0,False,0.0017124458,0.0,0.0,0.0017125523,0.0,0.0017124498,0.00010702786,0.31826207,0.00010703452,0.000107028114
5.637,-106.21643531204565,39.96119236193976,1.7512208906250637,4.326259568021147,-7.003639969148114,-116.37480832527136,-0.1053878,-0.08686528,-1.0297147,1.0387322,0.5701184,-2.0481215,2.9700277,-0.07420536,0.41809088,-0.509697,0.6633984,1501.0,65.03,8.209646939240907,-0.1169478973015465,1.5978596884670733,-1.5306573305240772,0.0466414422692906,-0.0723970934118592,0.0745407700538635,False,-578.8233004929793,-556.0203081756355,-82.34699829859856,228.96006568240023,107.35706209744804,107.35706209744804,0.0,0.0,1139.0,-106.2164362,39.9611925,2018-06-19 20:08:32+00:00,2487.096,0.81,1.39,7.43,8.0,-0.07,0.48,-0.48,AutoTakeoff,1.0,0.0,0.0,0.0,15.0,10.0,2.0,0.0,False,0.0017124458,0.0,0.0,0.0017125523,0.0,0.0017124498,0.00010702786,0.31826207,0.00010703452,0.000107028114
5.728,-106.21643531204565,39.96119236193976,1.7512208906250637,4.326259568021147,-7.003639969148114,-116.37480832527136,-0.1053878,-0.08686528,-1.0297147,1.0387322,0.5701184,-2.0481215,2.9700277,-0.07420536,0.41809088,-0.509697,0.6633984,1501.0,65.03,8.209646939240907,-0.1169478973015465,1.5978596884670733,-1.5306573305240772,0.0466414422692906,-0.0723970934118592,0.0745407700538635,False,-578.8233004929793,-556.0203081756355,-82.34699829859856,228.96006568240023,107.35706209744804,107.35706209744804,0.0,0.0,1139.0,-106.2164362,39.9611925,2018-06-19 20:08:32+00:00,2487.096,0.81,1.39,7.43,8.0,-0.07,0.48,-0.48,AutoTakeoff,1.0,0.0,0.0,0.0,15.0,10.0,2.0,0.0,False,0.0017124458,0.0,0.0,0.0017125523,0.0,0.0017124498,0.00010702786,0.31826207,0.00010703452,0.000107028114
5.768,-106.21643480011132,39.96119230021522,2.4707033125000635,4.771441261527381,-7.333588334846307,-116.27584848699306,-0.10225017,-0.08476592,-1.0036492,1.0123992,2.6701174,0.0053899796,7.2154717,-0.088478476,0.43948084,-0.516994,0.6842913,1509.0,65.0,8.721032382985513,-0.1254251510819166,1.6425466914498283,-1.5841569312276942,-0.0125055753961227,-0.0368750199971171,0.0303227759678724,False,-578.9297447065331,-555.8514634906406,-82.80436648958094,229.0042336819155,98.93966568232648,98.93966568232648,0.0,0.0,1179.0,-106.2164362,39.9611925,2018-06-19 20:08:32+00:00,2487.096,0.81,1.39,7.43,8.0,-0.07,0.48,-0.48,AutoTakeoff,1.0,0.0,0.0,0.0,15.0,10.0,2.0,0.0,False,0.0017124458,0.0,0.0,0.0017125523,0.0,0.0017124498,0.00010702786,0.31826207,0.00010703452,0.000107028114
5.808,-106.21643480011132,39.96119230021522,2.4707033125000635,4.771441261527381,-7.333588334846307,-116.27584848699306,-0.10225017,-0.08476592,-1.0036492,1.0123992,2.6701174,0.0053899796,7.2154717,-0.088478476,0.43948084,-0.516994,0.6842913,1509.0,65.0,8.721032382985513,-0.1254251510819166,1.6425466914498283,-1.5841569312276942,-0.0125055753961227,-0.0368750199971171,0.0303227759678724,False,-578.9297447065331,-555.8514634906406,-82.80436648958094,229.0042336819155,98.93966568232648,98.93966568232648,0.0,0.0,1179.0,-106.2164353,39.9611925,2018-06-19 20:08:32+00:00,2487.185,0.73,1.22,7.43,8.0,-0.01,0.4,-0.47,AutoTakeoff,1.0,0.0,0.0,0.0,15.0,10.0,2.0,0.0,False,0.0012958637,0.0,0.0,0.0012958845,0.0,0.0012958567,8.099148e-05,0.31713927,8.099278e-05,8.099104e-05
5.846,-106.21643432049972,39.96119223381378,1.3955080000000637,4.974408853807356,-7.1931075353451295,-116.305679881537,-0.10590151,-0.09453284,-0.9813256,0.99154,3.48405,-0.9287163,5.016225,-0.1037566,0.42205083,-0.5112564,0.6710257,1501.0,64.99,8.716153012260753,-0.1354452166334603,1.687453188662479,-1.6377534789815351,0.0027725479230262,-0.0194450125393839,0.0245851732571485,False,-578.9778721893995,-555.53068352413,-82.97199341366614,229.04577181587604,100.23887038776918,100.23887038776918,0.0,0.0,1219.0,-106.2164353,39.9611925,2018-06-19 20:08:32+00:00,2487.185,0.73,1.22,7.43,8.0,-0.01,0.4,-0.47,AutoTakeoff,1.0,0.0,0.0,0.0,15.0,10.0,3.0,0.0,False,0.0012958637,0.0,0.0,0.0012958845,0.0,0.0012958567,8.099148e-05,0.31713927,8.099278e-05,8.099104e-05
5.934,-106.21643432049972,39.96119223381378,1.3955080000000637,4.974408853807356,-7.1931075353451295,-116.305679881537,-0.10590151,-0.09453284,-0.9813256,0.99154,3.48405,-0.9287163,5.016225,-0.1037566,0.42205083,-0.5112564,0.6710257,1501.0,64.99,8.716153012260753,-0.1354452166334603,1.687453188662479,-1.6377534789815351,0.0027725479230262,-0.0194450125393839,0.0245851732571485,False,-578.9778721893995,-555.53068352413,-82.97199341366614,229.04577181587604,100.23887038776918,100.23887038776918,0.0,0.0,1219.0,-106.2164353,39.9611925,2018-06-19 20:08:32+00:00,2487.185,0.73,1.22,7.43,8.0,-0.01,0.4,-0.47,AutoTakeoff,1.0,0.0,0.0,0.0,15.0,10.0,3.0,0.0,False,0.0012958637,0.0,0.0,0.0012958845,0.0,0.0012958567,8.099148e-05,0.31713927,8.099278e-05,8.099104e-05
5.977,-106.21643350925925,39.96119213788866,2.3073732343750635,5.178738346523874,-6.834223466300014,-116.30732231667524,-0.10401394,-0.09695223,-1.0042179,1.0142348,9.811454,-1.1193105,10.596492,-0.08156771,0.3735686,-0.49322033,0.6240778,1493.0,65.03,8.545327410622903,-0.1450994097277806,1.7288997940050503,-1.6900801931958949,-0.0194163390770576,0.0290372267069844,0.0065491057713392,False,-579.0845610855135,-554.8380741161692,-82.59013468054728,229.11573066029945,98.7698960233433,98.7698960233433,0.0,0.0,1259.0,-106.2164353,39.9611925,2018-06-19 20:08:32+00:00,2487.185,0.73,1.22,7.43,8.0,-0.01,0.4,-0.47,AutoTakeoff,1.0,0.0,0.0,0.0,15.0,10.0,3.0,0.0,False,0.0012958637,0.0,0.0,0.0012958845,0.0,0.0012958567,8.099148e-05,0.31713927,8.099278e-05,8.099104e-05
6.019,-106.21643350925925,39.96119213788866,2.3073732343750635,5.178738346523874,-6.834223466300014,-116.30732231667524,-0.10401394,-0.09695223,-1.0042179,1.0142348,9.811454,-1.1193105,10.596492,-0.08156771,0.3735686,-0.49322033,0.6240778,1493.0,65.03,8.545327410622903,-0.1450994097277806,1.7288997940050503,-1.6900801931958949,-0.0194163390770576,0.0290372267069844,0.0065491057713392,False,-579.0845610855135,-554.8380741161692,-82.59013468054728,229.11573066029945,98.7698960233433,98.7698960233433,0.0,0.0,1259.0,-106.2164341,39.9611922,2018-06-19 20:08:32+00:00,2487.272,0.73,1.22,7.44,8.0,-0.1,0.5,-0.47,AutoTakeoff,1.0,0.0,0.0,0.0,15.0,10.0,3.0,0.0,False,0.0016031347,0.0,0.0,0.0016032308,0.0,0.0016025474,0.00010019592,0.316826,0.00010020193,0.00010015921
6.054,-106.21643296553852,39.961192079818346,1.7531740156250637,5.776474915055581,-6.215351514871115,-116.13129524409814,-0.114637285,-0.055682614,-1.019396,1.0273317,0.075948276,0.13449574,3.02605,-0.06673146,0.355588,-0.5067228,0.62262666,1514.0,65.03,8.454596601749786,-0.1528112563456751,1.7668173604834774,-1.7420791893426166,-0.0117063027040453,0.1448558681458912,-0.0285379852394406,False,-579.1357733766595,-554.3239098959021,-82.2331390401665,229.16251894915845,97.93255212657664,97.93255212657664,0.0,0.0,1299.0,-106.2164341,39.9611922,2018-06-19 20:08:32+00:00,2487.272,0.73,1.22,7.44,8.0,-0.1,0.5,-0.47,AutoTakeoff,1.0,0.0,0.0,0.0,15.0,10.0,3.0,0.0,False,0.0016031347,0.0,0.0,0.0016032308,0.0,0.0016025474,0.00010019592,0.316826,0.00010020193,0.00010015921
6.143,-106.21643296553852,39.961192079818346,1.7531740156250637,5.776474915055581,-6.215351514871115,-116.13129524409814,-0.114637285,-0.055682614,-1.019396,1.0273317,0.075948276,0.13449574,3.02605,-0.06673146,0.355588,-0.5067228,0.62262666,1514.0,65.03,8.454596601749786,-0.1528112563456751,1.7668173604834774,-1.7420791893426166,-0.0117063027040453,0.1448558681458912,-0.0285379852394406,False,-579.1357733766595,-554.3239098959021,-82.2331390401665,229.16251894915845,97.93255212657664,97.93255212657664,0.0,0.0,1299.0,-106.2164341,39.9611922,2018-06-19 20:08:32+00:00,2487.272,0.73,1.22,7.44,8.0,-0.1,0.5,-0.47,AutoTakeoff,1.0,0.0,0.0,0.0,15.0,10.0,3.0,0.0,False,0.0016031347,0.0,0.0,0.0016032308,0.0,0.0016025474,0.00010019592,0.316826,0.00010020193,0.00010015921
6.185,-106.2164325733423,39.96119208859892,2.2402345625000635,5.049657878448659,-6.466336959317373,-116.23751962686588,-0.11375779,-0.08648962,-1.0175495,1.0275351,-1.3047084,1.7829131,4.8643894,-0.06703919,0.37767506,-0.50387657,0.6332648,1497.0,64.99,8.1782492388517,-0.1597777974172949,1.8050044145371285,-1.7947094332710505,-0.0113985713736506,0.1227688007802448,-0.031384226236755,False,-579.0359180861901,-554.387901567251,-82.30144627051014,229.19595955782717,88.32691615132865,88.32691615132865,0.0,0.0,1339.0,-106.2164341,39.9611922,2018-06-19 20:08:32+00:00,2487.272,0.73,1.22,7.44,8.0,-0.1,0.5,-0.47,AutoTakeoff,1.0,0.0,0.0,0.0,15.0,10.0,3.0,0.0,False,0.0016031347,0.0,0.0,0.0016032308,0.0,0.0016025474,0.00010019592,0.316826,0.00010020193,0.00010015921
6.224,-106.2164325733423,39.96119208859892,2.2402345625000635,5.049657878448659,-6.466336959317373,-116.23751962686588,-0.11375779,-0.08648962,-1.0175495,1.0275351,-1.3047084,1.7829131,4.8643894,-0.06703919,0.37767506,-0.50387657,0.6332648,1497.0,64.99,8.1782492388517,-0.1597777974172949,1.8050044145371285,-1.7947094332710505,-0.0113985713736506,0.1227688007802448,-0.031384226236755,False,-579.0359180861901,-554.387901567251,-82.30144627051014,229.19595955782717,88.32691615132865,88.32691615132865,0.0,0.0,1339.0,-106.2164333,39.9611921,2018-06-19 20:08:33+00:00,2487.378,0.73,1.22,7.45,8.0,-0.07,0.36,-0.48,AutoTakeoff,1.0,0.0,0.0,0.0,15.0,10.0,3.0,0.0,False,0.0019527633,0.0,0.0,0.0019529632,0.0,0.0019524368,0.000122047706,0.3156972,0.0001220602,0.0001220273
6.262,-106.21643221520056,39.96119210595487,2.0930177656250635,4.941948520062196,-6.589007460188394,-116.24896920973002,-0.09842177,-0.07169354,-0.98895,0.99641806,-6.985087,-1.0701772,8.830966,-0.05846525,0.35441068,-0.49636674,0.6127031,1508.0,64.99,8.21044926014509,-0.1663215089164431,1.84317483926778,-1.846861401306155,-0.0199725132600756,0.1460331790894947,-0.0388940538505856,False,-578.9987565483984,-554.8201255429294,-82.25126633347791,229.226544442704,86.38225530732444,86.38225530732444,0.0,0.0,1379.0,-106.2164333,39.9611921,2018-06-19 20:08:33+00:00,2487.378,0.73,1.22,7.45,8.0,-0.07,0.36,-0.48,AutoTakeoff,1.0,0.0,0.0,0.0,15.0,10.0,3.0,0.0,False,0.0019527633,0.0,0.0,0.0019529632,0.0,0.0019524368,0.000122047706,0.3156972,0.0001220602,0.0001220273
6.351,-106.21643221520056,39.96119210595487,2.0930177656250635,4.941948520062196,-6.589007460188394,-116.24896920973002,-0.09842177,-0.07169354,-0.98895,0.99641806,-6.985087,-1.0701772,8.830966,-0.05846525,0.35441068,-0.49636674,0.6127031,1508.0,64.99,8.21044926014509,-0.1663215089164431,1.84317483926778,-1.846861401306155,-0.0199725132600756,0.1460331790894947,-0.0388940538505856,False,-578.9987565483984,-554.8201255429294,-82.25126633347791,229.226544442704,86.38225530732444,86.38225530732444,0.0,0.0,1379.0,-106.2164333,39.9611921,2018-06-19 20:08:33+00:00,2487.378,0.73,1.22,7.45,8.0,-0.07,0.36,-0.48,AutoTakeoff,1.0,0.0,0.0,0.0,15.0,10.0,3.0,0.0,False,0.0019527633,0.0,0.0,0.0019529632,0.0,0.0019524368,0.000122047706,0.3156972,0.0001220602,0.0001220273
6.393,-106.21643167958008,39.9611919340433,2.3269044843750635,4.025890637802856,-6.466426950303968,-116.33413571153687,-0.10344272,-0.082728244,-0.99416476,1.0029496,-4.8492317,-0.12311576,4.8848567,-0.040546015,0.31174055,-0.48809263,0.5805692,1501.0,65.02,7.59931205034292,-0.1714793528163944,1.8778769920400773,-1.898145341285085,-0.0113039582703016,0.0388441012191905,0.1179247279387812,False,-579.0609193622295,-555.4366166902319,-82.00536988774876,229.27603536549103,112.7211447444473,112.7211447444473,0.0,0.0,1419.0,-106.2164333,39.9611921,2018-06-19 20:08:33+00:00,2487.378,0.73,1.22,7.45,8.0,-0.07,0.36,-0.48,AutoTakeoff,1.0,0.0,0.0,0.0,15.0,10.0,3.0,0.0,False,0.0019527633,0.0,0.0,0.0019529632,0.0,0.0019524368,0.000122047706,0.3156972,0.0001220602,0.0001220273
6.433,-106.21643167958008,39.9611919340433,2.3269044843750635,4.025890637802856,-6.466426950303968,-116.33413571153687,-0.10344272,-0.082728244,-0.99416476,1.0029496,-4.8492317,-0.12311576,4.8848567,-0.040546015,0.31174055,-0.48809263,0.5805692,1501.0,65.02,7.59931205034292,-0.1714793528163944,1.8778769920400773,-1.898145341285085,-0.0113039582703016,0.0388441012191905,0.1179247279387812,False,-579.0609193622295,-555.4366166902319,-82.00536988774876,229.27603536549103,112.7211447444473,112.7211447444473,0.0,0.0,1419.0,-106.2164325,39.961192,2018-06-19 20:08:33+00:00,2487.494,0.73,1.22,7.44,8.0,-0.08,0.37,-0.49,AutoTakeoff,1.0,0.0,0.0,0.0,15.0,10.0,3.0,0.0,False,0.0016845001,0.0,0.0,0.001684845,0.0,0.0016844774,0.00010528126,0.31431398,0.00010530281,0.00010527984
6.471,-106.21643122596738,39.96119182308764,2.5559083906250635,3.842060256587312,-6.302992300174968,-116.47718338677564,-0.08904882,-0.070812695,-1.0151048,1.0214607,4.476124,-0.48127034,5.795843,-0.053848393,0.29642004,-0.4835684,0.5697393,1507.0,65.01,7.365653401594997,-0.1763923674382148,1.909530369664557,-1.9487180917974865,0.001998420086155,0.0541646108913554,0.11340049698175,False,-579.0923762867903,-555.4560361098111,-82.22533070049177,229.31661708791268,107.69929040989848,107.69929040989848,0.0,0.0,1459.0,-106.2164325,39.961192,2018-06-19 20:08:33+00:00,2487.494,0.73,1.22,7.44,8.0,-0.08,0.37,-0.49,AutoTakeoff,1.0,0.0,0.0,0.0,15.0,10.0,3.0,0.0,False,0.0016845001,0.0,0.0,0.001684845,0.0,0.0016844774,0.00010528126,0.31431398,0.00010530281,0.00010527984
6.561,-106.21643122596738,39.96119182308764,2.5559083906250635,3.842060256587312,-6.302992300174968,-116.47718338677564,-0.08904882,-0.070812695,-1.0151048,1.0214607,4.476124,-0.48127034,5.795843,-0.053848393,0.29642004,-0.4835684,0.5697393,1507.0,65.01,7.365653401594997,-0.1763923674382148,1.909530369664557,-1.9487180917974865,0.001998420086155,0.0541646108913554,0.11340049698175,False,-579.0923762867903,-555.4560361098111,-82.22533070049177,229.31661708791268,107.69929040989848,107.69929040989848,0.0,0.0,1459.0,-106.2164325,39.961192,2018-06-19 20:08:33+00:00,2487.494,0.73,1.22,7.44,8.0,-0.08,0.37,-0.49,AutoTakeoff,1.0,0.0,0.0,0.0,15.0,10.0,3.0,0.0,False,0.0016845001,0.0,0.0,0.001684845,0.0,0.0016844774,0.00010528126,0.31431398,0.00010530281,0.00010527984
6.602,-106.21643091957772,39.961191772104314,1.2158205000000637,4.244643341718153,-5.536867357008927,-116.40737358483476,-0.0999788,-0.07318818,-1.042574,1.0499109,14.630166,-0.08915398,17.862797,-0.06588456,0.2903456,-0.51194954,0.5922277,1501.0,64.99,6.960686353563851,-0.1826315037384382,1.9401060026644552,-2.0005933018012865,0.0140345871713258,0.060239039449705,0.1417816360217433,False,-579.1221003937313,-554.4604309480046,-81.88151011148658,229.3433385503641,102.24866087627817,102.24866087627817,0.0,0.0,1499.0,-106.2164325,39.961192,2018-06-19 20:08:33+00:00,2487.494,0.73,1.22,7.44,8.0,-0.08,0.37,-0.49,AutoTakeoff,1.0,0.0,0.0,0.0,15.0,10.0,3.0,0.0,False,0.0016845001,0.0,0.0,0.001684845,0.0,0.0016844774,0.00010528126,0.31431398,0.00010530281,0.00010527984
6.639,-106.21643091957772,39.961191772104314,1.2158205000000637,4.244643341718153,-5.536867357008927,-116.40737358483476,-0.0999788,-0.07318818,-1.042574,1.0499109,14.630166,-0.08915398,17.862797,-0.06588456,0.2903456,-0.51194954,0.5922277,1501.0,64.99,6.960686353563851,-0.1826315037384382,1.9401060026644552,-2.0005933018012865,0.0140345871713258,0.060239039449705,0.1417816360217433,False,-579.1221003937313,-554.4604309480046,-81.88151011148658,229.3433385503641,102.24866087627817,102.24866087627817,0.0,0.0,1499.0,-106.2164319,39.9611918,2018-06-19 20:08:33+00:00,2487.591,0.73,1.22,7.44,8.0,-0.09,0.25,-0.48,AutoTakeoff,1.0,0.0,0.0,0.0,15.0,10.0,3.0,0.0,False,0.0018838857,0.0,0.0,0.0018841125,0.0,0.0018839119,0.00011774286,0.31440225,0.00011775703,0.000117744494
6.679,-106.21643064784584,39.961191736363226,1.9687501875000637,4.8226270261749296,-5.509255635600092,-116.23374989853868,-0.096717626,-0.03723883,-0.9837329,0.98917717,-2.9012935,1.079716,8.258827,-0.04623121,0.27348405,-0.5167025,0.5864404,1496.0,64.97,7.302407879901795,-0.188468585788204,1.9694606596672968,-2.0541479994656537,-0.0241217987219275,0.007957518380191,0.082242617723089,False,-579.0705287767415,-553.8497907945266,-81.7465777408048,229.36683641245335,99.7373233781748,99.7373233781748,0.0,0.0,1539.0,-106.2164319,39.9611918,2018-06-19 20:08:33+00:00,2487.591,0.73,1.22,7.44,8.0,-0.09,0.25,-0.48,AutoTakeoff,1.0,0.0,0.0,0.0,15.0,10.0,3.0,0.0,False,0.0018838857,0.0,0.0,0.0018841125,0.0,0.0018839119,0.00011774286,0.31440225,0.00011775703,0.000117744494
6.768,-106.21643064784584,39.961191736363226,1.9687501875000637,4.8226270261749296,-5.509255635600092,-116.23374989853868,-0.096717626,-0.03723883,-0.9837329,0.98917717,-2.9012935,1.079716,8.258827,-0.04623121,0.27348405,-0.5167025,0.5864404,1496.0,64.97,7.302407879901795,-0.188468585788204,1.9694606596672968,-2.0541479994656537,-0.0241217987219275,0.007957518380191,0.082242617723089,False,-579.0705287767415,-553.8497907945266,-81.7465777408048,229.36683641245335,99.7373233781748,99.7373233781748,0.0,0.0,1539.0,-106.2164319,39.9611918,2018-06-19 20:08:33+00:00,2487.591,0.73,1.22,7.44,8.0,-0.09,0.25,-0.48,AutoTakeoff,1.0,0.0,0.0,0.0,15.0,10.0,3.0,0.0,False,0.0018838857,0.0,0.0,0.0018841125,0.0,0.0018839119,0.00011774286,0.31440225,0.00011775703,0.000117744494
6.81,-106.21643061298694,39.96119175343257,1.9638673750000637,4.137007486167671,-5.3964942413073045,-116.32154320410248,-0.09127855,-0.060231343,-0.9955447,1.0015333,-11.567611,-2.5560813,16.20706,-0.034420438,0.21215111,-0.4992927,0.5435863,1509.0,64.99,6.784976989133702,-0.1926712435501976,1.9947665079976868,-2.10709025290525,-0.0359325708428801,0.0692904594354889,0.064832846042257,False,-579.1474603501448,-554.603747521166,-81.56923074925508,229.37036192031024,57.42730747535443,57.42730747535443,0.0,0.0,1579.0,-106.2164319,39.9611918,2018-06-19 20:08:33+00:00,2487.591,0.73,1.22,7.44,8.0,-0.09,0.25,-0.48,AutoTakeoff,1.0,0.0,0.0,0.0,15.0,10.0,3.0,0.0,False,0.0018838857,0.0,0.0,0.0018841125,0.0,0.0018839119,0.00011774286,0.31440225,0.00011775703,0.000117744494
6.852,-106.21643061298694,39.96119175343257,1.9638673750000637,4.137007486167671,-5.3964942413073045,-116.32154320410248,-0.09127855,-0.060231343,-0.9955447,1.0015333,-11.567611,-2.5560813,16.20706,-0.034420438,0.21215111,-0.4992927,0.5435863,1509.0,64.99,6.784976989133702,-0.1926712435501976,1.9947665079976868,-2.10709025290525,-0.0359325708428801,0.0692904594354889,0.064832846042257,False,-579.1474603501448,-554.603747521166,-81.56923074925508,229.37036192031024,57.42730747535443,57.42730747535443,0.0,0.0,1579.0,-106.2164312,39.9611917,2018-06-19 20:08:33+00:00,2487.713,0.73,1.22,7.44,8.0,-0.07,0.29,-0.51,AutoTakeoff,1.0,0.0,0.0,0.0,15.0,10.0,3.0,0.0,False,0.0016310111,0.0,0.0,0.001631219,0.0,0.0016312391,0.000101938196,0.3127719,0.00010195119,0.00010195244
6.888,-106.2164303754101,39.96119175912887,1.4018556562500637,3.627606237967489,-5.246468946130819,-116.3809954722704,-0.09106009,-0.04790476,-1.0006398,1.0059159,-3.1127229,-0.3225712,8.469951,-0.029483225,0.2114056,-0.49709642,0.54098654,1506.0,65.0,6.367002493490846,-0.1960002094091386,2.016831062225341,-2.1589956554087575,-0.0408697837571085,0.0700359645300171,0.0626365638938958,False,-579.2974194501468,-555.3684975663227,-81.4030809541997,229.3906201784907,88.20828503590693,88.20828503590693,0.0,0.0,1619.0,-106.2164312,39.9611917,2018-06-19 20:08:33+00:00,2487.713,0.73,1.22,7.44,8.0,-0.07,0.29,-0.51,AutoTakeoff,1.0,0.0,0.0,0.0,15.0,10.0,3.0,0.0,False,0.0016310111,0.0,0.0,0.001631219,0.0,0.0016312391,0.000101938196,0.3127719,0.00010195119,0.00010195244
6.978,-106.2164303754101,39.96119175912887,1.4018556562500637,3.627606237967489,-5.246468946130819,-116.3809954722704,-0.09106009,-0.04790476,-1.0006398,1.0059159,-3.1127229,-0.3225712,8.469951,-0.029483225,0.2114056,-0.49709642,0.54098654,1506.0,65.0,6.367002493490846,-0.1960002094091386,2.016831062225341,-2.1589956554087575,-0.0408697837571085,0.0700359645300171,0.0626365638938958,False,-579.2974194501468,-555.3684975663227,-81.4030809541997,229.3906201784907,88.20828503590693,88.20828503590693,0.0,0.0,1619.0,-106.2164312,39.9611917,2018-06-19 20:08:33+00:00,2487.713,0.73,1.22,7.44,8.0,-0.07,0.29,-0.51,AutoTakeoff,1.0,0.0,0.0,0.0,15.0,10.0,3.0,0.0,False,0.0016310111,0.0,0.0,0.001631219,0.0,0.0016312391,0.000101938196,0.3127719,0.00010195119,0.00010195244
7.018,-106.21643018621114,39.96119170901188,1.4135744062500637,3.678086495393988,-5.187530323207945,-116.43002650220234,-0.08785003,-0.043362603,-0.988825,0.99366635,-0.41118982,-2.344944,7.433809,-0.017773464,0.22326177,-0.48944205,0.538252,1501.0,65.0,6.347582497485103,-0.1984626971213323,2.0394810423604977,-2.210402956347748,0.0080450058059038,-0.0974085265344696,-0.0009913739865760052,False,-579.4364203712981,-555.552124303746,-81.44624589892702,229.40768114926937,109.0648195816836,109.0648195816836,0.0,0.0,1659.0,-106.2164312,39.9611917,2018-06-19 20:08:33+00:00,2487.713,0.73,1.22,7.44,8.0,-0.07,0.29,-0.51,AutoTakeoff,1.0,0.0,0.0,0.0,15.0,10.0,3.0,0.0,False,0.0016310111,0.0,0.0,0.001631219,0.0,0.0016312391,0.000101938196,0.3127719,0.00010195119,0.00010195244
7.058,-106.21643018621114,39.96119170901188,1.4135744062500637,3.678086495393988,-5.187530323207945,-116.43002650220234,-0.08785003,-0.043362603,-0.988825,0.99366635,-0.41118982,-2.344944,7.433809,-0.017773464,0.22326177,-0.48944205,0.538252,1501.0,65.0,6.347582497485103,-0.1984626971213323,2.0394810423604977,-2.210402956347748,0.0080450058059038,-0.0974085265344696,-0.0009913739865760052,False,-579.4364203712981,-555.552124303746,-81.44624589892702,229.40768114926937,109.0648195816836,109.0648195816836,0.0,0.0,1659.0,-106.2164305,39.9611917,2018-06-19 20:08:33+00:00,2487.809,0.73,1.22,7.45,8.0,0.03,0.31,-0.49,AutoTakeoff,1.0,0.0,0.0,0.0,15.0,10.0,3.0,0.0,False,0.0019572414,0.0,0.0,0.0019572438,0.0,0.0019574112,0.00012232759,0.31093746,0.00012232774,0.0001223382
7.096,-106.21643001092224,39.96119166715435,2.5993654218750635,3.6993524323010463,-4.988110382741805,-116.52149242532904,-0.098646834,-0.04121712,-1.0076076,1.0132636,-4.2672105,0.7771714,5.4773498,0.0028197654,0.22284289,-0.46451712,0.51521164,1507.0,64.97,6.199107680962487,-0.199240546849186,2.062686163028351,-2.2600252524951383,-0.0125482238753495,-0.0969896399921493,-0.0259163078969458,False,-579.5179715322635,-555.7954816439806,-81.25391801283841,229.42332901361263,107.30407671521132,107.30407671521132,0.0,0.0,1699.0,-106.2164305,39.9611917,2018-06-19 20:08:33+00:00,2487.809,0.73,1.22,7.45,8.0,0.03,0.31,-0.49,AutoTakeoff,1.0,0.0,0.0,0.0,15.0,10.0,3.0,0.0,False,0.0019572414,0.0,0.0,0.0019572438,0.0,0.0019574112,0.00012232759,0.31093746,0.00012232774,0.0001223382
7.184,-106.21643001092224,39.96119166715435,2.5993654218750635,3.6993524323010463,-4.988110382741805,-116.52149242532904,-0.098646834,-0.04121712,-1.0076076,1.0132636,-4.2672105,0.7771714,5.4773498,0.0028197654,0.22284289,-0.46451712,0.51521164,1507.0,64.97,6.199107680962487,-0.199240546849186,2.062686163028351,-2.2600252524951383,-0.0125482238753495,-0.0969896399921493,-0.0259163078969458,False,-579.5179715322635,-555.7954816439806,-81.25391801283841,229.42332901361263,107.30407671521132,107.30407671521132,0.0,0.0,1699.0,-106.2164305,39.9611917,2018-06-19 20:08:33+00:00,2487.809,0.73,1.22,7.45,8.0,0.03,0.31,-0.49,AutoTakeoff,1.0,0.0,0.0,0.0,15.0,10.0,3.0,0.0,False,0.0019572414,0.0,0.0,0.0019572438,0.0,0.0019574112,0.00012232759,0.31093746,0.00012232774,0.0001223382
7.227,-106.2164298012772,39.961191627729725,2.2182619062500635,3.0904442839082447,-5.444968182084496,-116.55501257482116,-0.10495476,-0.0713939,-1.0037385,1.0117329,4.369949,0.76786983,9.007708,0.043136638,0.2726332,-0.4672579,0.5426966,1506.0,64.98,6.251733936902991,-0.1968458154602821,2.088504809572518,-2.308578896866761,-0.052865096174067,-0.1467799478715973,-0.0231755373185614,False,-579.4374613438182,-555.7901280738943,-81.83670592852069,229.4417266992526,103.78510518159445,103.78510518159445,0.0,0.0,1739.0,-106.2164305,39.9611917,2018-06-19 20:08:33+00:00,2487.809,0.73,1.22,7.45,8.0,0.03,0.31,-0.49,AutoTakeoff,1.0,0.0,0.0,0.0,15.0,10.0,3.0,0.0,False,0.0019572414,0.0,0.0,0.0019572438,0.0,0.0019574112,0.00012232759,0.31093746,0.00012232774,0.0001223382
7.266,-106.2164298012772,39.961191627729725,2.2182619062500635,3.0904442839082447,-5.444968182084496,-116.55501257482116,-0.10495476,-0.0713939,-1.0037385,1.0117329,4.369949,0.76786983,9.007708,0.043136638,0.2726332,-0.4672579,0.5426966,1506.0,64.98,6.251733936902991,-0.1968458154602821,2.088504809572518,-2.308578896866761,-0.052865096174067,-0.1467799478715973,-0.0231755373185614,False,-579.4374613438182,-555.7901280738943,-81.83670592852069,229.4417266992526,103.78510518159445,103.78510518159445,0.0,0.0,1739.0,-106.21643,39.9611918,2018-06-19 20:08:34+00:00,2487.924,0.66,1.09,7.44,8.0,0.0,0.22,-0.5,AutoTakeoff,1.0,0.0,0.0,0.0,15.0,10.0,3.0,0.0,False,0.0016045951,0.0,0.0,0.0016041652,0.0,0.0016038158,0.000100287194,0.31070042,0.000100260324,0.00010023849
7.304,-106.21642952664044,39.9611916399398,2.1176759687500635,2.9710813181245666,-6.14700823591074,-116.47130793624224,-0.11486791,-0.07218176,-0.9854587,0.99475306,-4.9259634,0.3136251,7.4950905,0.027946835,0.27674913,-0.45066294,0.52959245,1502.0,64.97,6.817513239407331,-0.1931449974363239,2.1171072953285,-2.356368598171043,-0.0525339275006031,-0.0967930115466124,0.1466379309711441,False,-579.3811554860864,-555.8190758522605,-82.5384875048163,229.46517296334255,86.68032673619831,86.68032673619831,0.0,0.0,1779.0,-106.21643,39.9611918,2018-06-19 20:08:34+00:00,2487.924,0.66,1.09,7.44,8.0,0.0,0.22,-0.5,AutoTakeoff,1.0,0.0,0.0,0.0,15.0,10.0,3.0,0.0,False,0.0016045951,0.0,0.0,0.0016041652,0.0,0.0016038158,0.000100287194,0.31070042,0.000100260324,0.00010023849
7.395,-106.21642952664044,39.9611916399398,2.1176759687500635,2.9710813181245666,-6.14700823591074,-116.47130793624224,-0.11486791,-0.07218176,-0.9854587,0.99475306,-4.9259634,0.3136251,7.4950905,0.027946835,0.27674913,-0.45066294,0.52959245,1502.0,64.97,6.817513239407331,-0.1931449974363239,2.1171072953285,-2.356368598171043,-0.0525339275006031,-0.0967930115466124,0.1466379309711441,False,-579.3811554860864,-555.8190758522605,-82.5384875048163,229.46517296334255,86.68032673619831,86.68032673619831,0.0,0.0,1779.0,-106.21643,39.9611918,2018-06-19 20:08:34+00:00,2487.924,0.66,1.09,7.44,8.0,0.0,0.22,-0.5,AutoTakeoff,1.0,0.0,0.0,0.0,15.0,10.0,3.0,0.0,False,0.0016045951,0.0,0.0,0.0016041652,0.0,0.0016038158,0.000100287194,0.31070042,0.000100260324,0.00010023849
7.435,-106.21642914512532,39.96119167596424,1.9692384687500637,2.878216111763289,-6.422395156832859,-116.30199479685136,-0.11570596,-0.06317218,-1.041128,1.0494409,7.5410495,1.2373726,7.7511263,0.003251005,0.2793604,-0.4638985,0.5415299,1497.0,64.97,7.028051754069655,-0.1915207446398916,2.146060020189074,-2.40398340024994,-0.0278380970809435,-0.0994042910342223,0.1598734999713882,False,-579.3004059092333,-555.6829266563936,-82.89964827642471,229.4979347883313,82.97696614011537,82.97696614011537,0.0,0.0,1819.0,-106.21643,39.9611918,2018-06-19 20:08:34+00:00,2487.924,0.66,1.09,7.44,8.0,0.0,0.22,-0.5,AutoTakeoff,1.0,0.0,0.0,0.0,15.0,10.0,3.0,0.0,False,0.0016045951,0.0,0.0,0.0016041652,0.0,0.0016038158,0.000100287194,0.31070042,0.000100260324,0.00010023849
7.474,-106.21642914512532,39.96119167596424,1.9692384687500637,2.878216111763289,-6.422395156832859,-116.30199479685136,-0.11570596,-0.06317218,-1.041128,1.0494409,7.5410495,1.2373726,7.7511263,0.003251005,0.2793604,-0.4638985,0.5415299,1497.0,64.97,7.028051754069655,-0.1915207446398916,2.146060020189074,-2.40398340024994,-0.0278380970809435,-0.0994042910342223,0.1598734999713882,False,-579.3004059092333,-555.6829266563936,-82.89964827642471,229.4979347883313,82.97696614011537,82.97696614011537,0.0,0.0,1819.0,-106.2164294,39.9611917,2018-06-19 20:08:34+00:00,2488.025,0.66,1.09,7.43,8.0,-0.02,0.26,-0.48,AutoTakeoff,1.0,0.0,0.0,0.0,15.0,10.0,3.0,0.0,False,0.0021221023,0.0,0.0,0.0021220534,0.0,0.0021220075,0.0001326314,0.31132224,0.00013262834,0.00013262547
7.512,-106.21642875878364,39.961191703953936,1.4167482343750637,3.481458807618204,-6.310543986871036,-116.22312629572784,-0.104377784,-0.0683855,-1.0328944,1.0404048,6.326591,-0.21181975,6.47744,-0.005186588,0.26580864,-0.49633437,0.56305325,1494.0,64.94,7.19367554080373,-0.1916215168787722,2.174443150334886,-2.4539759936208565,-0.0194005040790712,-0.0858525193934447,0.192309364181517,False,-579.2470125614651,-554.9609358517982,-83.03866898360648,229.5310089305318,84.6004169325933,84.6004169325933,0.0,0.0,1859.0,-106.2164294,39.9611917,2018-06-19 20:08:34+00:00,2488.025,0.66,1.09,7.43,8.0,-0.02,0.26,-0.48,AutoTakeoff,1.0,0.0,0.0,0.0,15.0,10.0,3.0,0.0,False,0.0021221023,0.0,0.0,0.0021220534,0.0,0.0021220075,0.0001326314,0.31132224,0.00013262834,0.00013262547
7.601,-106.21642875878364,39.961191703953936,1.4167482343750637,3.481458807618204,-6.310543986871036,-116.22312629572784,-0.104377784,-0.0683855,-1.0328944,1.0404048,6.326591,-0.21181975,6.47744,-0.005186588,0.26580864,-0.49633437,0.56305325,1494.0,64.94,7.19367554080373,-0.1916215168787722,2.174443150334886,-2.4539759936208565,-0.0194005040790712,-0.0858525193934447,0.192309364181517,False,-579.2470125614651,-554.9609358517982,-83.03866898360648,229.5310089305318,84.6004169325933,84.6004169325933,0.0,0.0,1859.0,-106.2164294,39.9611917,2018-06-19 20:08:34+00:00,2488.025,0.66,1.09,7.43,8.0,-0.02,0.26,-0.48,AutoTakeoff,1.0,0.0,0.0,0.0,15.0,10.0,3.0,0.0,False,0.0021221023,0.0,0.0,0.0021220534,0.0,0.0021220075,0.0001326314,0.31132224,0.00013262834,0.00013262547
7.643,-106.216428465332,39.96119176555797,2.1457521406250635,3.841759718184,-6.704281051203529,-116.20101526068342,-0.10890804,-0.07690432,-0.9870897,0.99605286,3.4834328,-2.976847,7.002049,-0.023533294,0.27654243,-0.5025702,0.57411355,1510.0,64.98,7.709696122312,-0.1931185126820516,2.202712670065998,-2.506042919664919,0.0682312241842737,0.0129100024416126,-0.0216485381126403,False,-579.4132186985622,-554.4495979421254,-83.38623897379658,229.55694052823617,74.68303327781041,74.68303327781041,0.0,0.0,1899.0,-106.2164294,39.9611917,2018-06-19 20:08:34+00:00,2488.025,0.66,1.09,7.43,8.0,-0.02,0.26,-0.48,AutoTakeoff,1.0,0.0,0.0,0.0,15.0,10.0,3.0,0.0,False,0.0021221023,0.0,0.0,0.0021220534,0.0,0.0021220075,0.0001326314,0.31132224,0.00013262834,0.00013262547
7.686,-106.216428465332,39.96119176555797,2.1457521406250635,3.841759718184,-6.704281051203529,-116.20101526068342,-0.10890804,-0.07690432,-0.9870897,0.99605286,3.4834328,-2.976847,7.002049,-0.023533294,0.27654243,-0.5025702,0.57411355,1510.0,64.98,7.709696122312,-0.1931185126820516,2.202712670065998,-2.506042919664919,0.0682312241842737,0.0129100024416126,-0.0216485381126403,False,-579.4132186985622,-554.4495979421254,-83.38623897379658,229.55694052823617,74.68303327781041,74.68303327781041,0.0,0.0,1899.0,-106.2164288,39.9611917,2018-06-19 20:08:34+00:00,2488.113,0.66,1.09,7.43,8.0,-0.01,0.23,-0.48,AutoTakeoff,1.0,0.0,0.0,0.0,15.0,10.0,3.0,0.0,False,0.0020841346,0.0,0.0,0.002084228,0.0,0.0020840757,0.00013025841,0.310524,0.00013026425,0.00013025473
7.721,-106.21642810824048,39.96119192507709,2.5231935468750635,4.0436381868437365,-7.3902403758561555,-116.23026551051493,-0.114844136,-0.080392905,-0.99030924,1.0001823,1.9837973,0.31557196,3.3741233,-0.02898106,0.26499432,-0.48312807,0.5517922,1506.0,65.02,8.402839477421518,-0.1958557720886098,2.2309397442323498,-2.55742148005565,0.0736789899965515,0.0244581043436207,-0.0410906791687011,False,-579.5519350574501,-554.164623913216,-83.80352437185284,229.59216666690745,59.765618714562294,59.765618714562294,0.0,0.0,1939.0,-106.2164288,39.9611917,2018-06-19 20:08:34+00:00,2488.113,0.66,1.09,7.43,8.0,-0.01,0.23,-0.48,AutoTakeoff,1.0,0.0,0.0,0.0,15.0,10.0,4.0,0.0,False,0.0020841346,0.0,0.0,0.002084228,0.0,0.0020840757,0.00013025841,0.310524,0.00013026425,0.00013025473
7.811,-106.21642810824048,39.96119192507709,2.5231935468750635,4.0436381868437365,-7.3902403758561555,-116.23026551051493,-0.114844136,-0.080392905,-0.99030924,1.0001823,1.9837973,0.31557196,3.3741233,-0.02898106,0.26499432,-0.48312807,0.5517922,1506.0,65.02,8.402839477421518,-0.1958557720886098,2.2309397442323498,-2.55742148005565,0.0736789899965515,0.0244581043436207,-0.0410906791687011,False,-579.5519350574501,-554.164623913216,-83.80352437185284,229.59216666690745,59.765618714562294,59.765618714562294,0.0,0.0,1939.0,-106.2164288,39.9611917,2018-06-19 20:08:34+00:00,2488.113,0.66,1.09,7.43,8.0,-0.01,0.23,-0.48,AutoTakeoff,1.0,0.0,0.0,0.0,15.0,10.0,4.0,0.0,False,0.0020841346,0.0,0.0,0.002084228,0.0,0.0020840757,0.00013025841,0.310524,0.00013026425,0.00013025473
7.852,-106.21642777732669,39.96119187181394,2.4851076093750635,4.235168208670375,-7.119032576602001,-116.2407557784123,-0.11319931,-0.08253172,-1.0220405,1.031597,6.598247,-1.7108123,11.085993,-0.028019726,0.23086204,-0.49004722,0.5424285,1497.0,64.98,8.261462175614048,-0.1988268823974728,2.256785772741827,-2.608147291536893,0.0727176564832916,0.058590391249863,-0.0341715335845946,False,-579.6246605990124,-553.7172932316962,-83.48912727131902,229.62098515596475,101.85956607875012,101.85956607875012,0.0,0.0,1979.0,-106.2164288,39.9611917,2018-06-19 20:08:34+00:00,2488.113,0.66,1.09,7.43,8.0,-0.01,0.23,-0.48,AutoTakeoff,1.0,0.0,0.0,0.0,15.0,10.0,4.0,0.0,False,0.0020841346,0.0,0.0,0.002084228,0.0,0.0020840757,0.00013025841,0.310524,0.00013026425,0.00013025473
7.894,-106.21642777732669,39.96119187181394,2.4851076093750635,4.235168208670375,-7.119032576602001,-116.2407557784123,-0.11319931,-0.08253172,-1.0220405,1.031597,6.598247,-1.7108123,11.085993,-0.028019726,0.23086204,-0.49004722,0.5424285,1497.0,64.98,8.261462175614048,-0.1988268823974728,2.256785772741827,-2.608147291536893,0.0727176564832916,0.058590391249863,-0.0341715335845946,False,-579.6246605990124,-553.7172932316962,-83.48912727131902,229.62098515596475,101.85956607875012,101.85956607875012,0.0,0.0,1979.0,-106.2164281,39.9611917,2018-06-19 20:08:34+00:00,2488.239,0.66,1.09,7.42,8.0,-0.02,0.29,-0.5,AutoTakeoff,1.0,0.0,0.0,0.0,15.0,10.0,4.0,0.0,False,0.001939059,0.0,0.0,0.0019391238,0.0,0.0019388513,0.00012119119,0.30925906,0.00012119524,0.00012117821
7.929,-106.21642747595357,39.96119182441319,2.6638185468750635,4.370261483715191,-7.217850121251082,-116.27708507546942,-0.105084404,-0.067418575,-1.0063148,1.0140303,-3.9907207,-1.6556244,5.4035835,-0.023033908,0.2170195,-0.49277854,0.5389422,1506.0,64.97,8.414072041937121,-0.201482550091729,2.2800833214444847,-2.659271147165141,0.0439739497415754,0.0527889843239332,0.0022014475767412,False,-579.7997732512664,-553.581656983456,-82.86554449279139,229.64720598273135,101.5961922523722,101.5961922523722,0.0,0.0,2019.0,-106.2164281,39.9611917,2018-06-19 20:08:34+00:00,2488.239,0.66,1.09,7.42,8.0,-0.02,0.29,-0.5,AutoTakeoff,1.0,0.0,0.0,0.0,15.0,10.0,4.0,0.0,False,0.001939059,0.0,0.0,0.0019391238,0.0,0.0019388513,0.00012119119,0.30925906,0.00012119524,0.00012117821
8.018,-106.21642747595357,39.96119182441319,2.6638185468750635,4.370261483715191,-7.217850121251082,-116.27708507546942,-0.105084404,-0.067418575,-1.0063148,1.0140303,-3.9907207,-1.6556244,5.4035835,-0.023033908,0.2170195,-0.49277854,0.5389422,1506.0,64.97,8.414072041937121,-0.201482550091729,2.2800833214444847,-2.659271147165141,0.0439739497415754,0.0527889843239332,0.0022014475767412,False,-579.7997732512664,-553.581656983456,-82.86554449279139,229.64720598273135,101.5961922523722,101.5961922523722,0.0,0.0,2019.0,-106.2164281,39.9611917,2018-06-19 20:08:34+00:00,2488.239,0.66,1.09,7.42,8.0,-0.02,0.29,-0.5,AutoTakeoff,1.0,0.0,0.0,0.0,15.0,10.0,4.0,0.0,False,0.001939059,0.0,0.0,0.0019391238,0.0,0.0019388513,0.00012119119,0.30925906,0.00012119524,0.00012117821
